order,trial_index,time_elapsed,cwid,StartTime,EndTime,rt,word_pair,answer,SHに基づく得点,SH：補足,PickedSample,Classification_ksm,Classification_oka,ageement,CR_ksm,CR_oka,FinalRating,Note_ksm,Note_oka
1,2,33223,275026,44928.9242,44928.92715,15459,鳥 - 飛行機,とぶもの,2,NA,1,2,2,1,,,2,,NA
2,3,41046,275026,44928.9242,44928.92715,7810,剣 - 拳銃,攻撃するもの,1,攻撃するという共通点だけ,0,,1,,,,1,,
3,4,50740,275026,44928.9242,44928.92715,9687,みかん - ボール,球状,2,球状は球形の同義語,0,,2,,,,2,,
4,5,55109,275026,44928.9242,44928.92715,4346,太陽 - 電球,光る,2,NA,0,,2,,,,2,,
5,6,60701,275026,44928.9242,44928.92715,5565,紙 - 葉っぱ,平たい,1,平たいシートである点がポイント、平たいは低次の共通点,0,,1,,,,1,,
6,7,65540,275026,44928.9242,44928.92715,4829,山頂 - 針,尖っている,2,NA,0,,2,,,,2,,
7,8,74871,275026,44928.9242,44928.92715,9321,道 - 川,筋になっている,1,KHにない,0,,1,,,,1,,
8,9,84726,275026,44928.9242,44928.92715,9848,愛 - 薬物,夢中になる,2,"2点とした（1→2, v3）",0,,2,,,,2,,
9,10,92492,275026,44928.9242,44928.92715,7753,山 - 障害物,困難さ,1,SHにない(難しさ),0,,1,,,,1,,
10,11,107625,275026,44928.9242,44928.92715,15121,輪っか - ネックレス,和状,0,誤字はバツ,1,2,0,0,0,0,0,,誤字はバツ（明らかに間違った回答）
11,12,114629,275026,44928.9242,44928.92715,6980,孤独 - 砂漠,何もない,2,空虚だの同義; SHにない,0,,2,,,,2,,
12,13,128592,275026,44928.9242,44928.92715,13953,なぞなぞ - 迷宮,わからないこと,2,解決できないと同義,0,,2,,,,2,,
13,14,133310,275026,44928.9242,44928.92715,4703,時間 - 川,流れる,2,NA,0,,2,,,,2,,
14,15,143254,275026,44928.9242,44928.92715,9931,会社 - 木,ツリー構造,0,木を言い換えているだけか,0,,0,,,,0,,
15,16,153038,275026,44928.9242,44928.92715,9774,酒場 - 教会,人が集まる,2,NA,0,,2,,,,2,,
16,17,157492,275026,44928.9242,44928.92715,4446,理論 - 建物,構築する,2,構築されなければならないと同義か,0,,2,,,,2,,
17,18,163942,275026,44928.9242,44928.92715,6437,ダイヤモンド - 雪片,輝く,1,きらめくと同義,0,,1,,,,1,,
18,19,174541,275026,44928.9242,44928.92715,10593,記憶 - 牢獄,閉じ込められる,2,NA,0,,2,,,,2,,
19,20,186984,275026,44928.9242,44928.92715,12435,鍵 - 答え,次へ開く,1,NA,1,,1,,,,1,,
20,21,194094,275026,44928.9242,44928.92715,7101,結婚 - 合金,合わさる,2,結合すると同義,0,,2,,,,2,,
21,22,198989,275026,44928.9242,44928.92715,4885,思考 - 網,ネットワーク,2,v3で2点に変更,0,,2,,,,2,,
22,23,241823,275026,44928.9242,44928.92715,42824,学位 - 橋,次へ繋がる,2,NA,0,,2,,,,2,,
23,24,248322,275026,44928.9242,44928.92715,6487,美術館 - 墓,静か,1,部分的に特徴が一致している,0,,1,,,,1,,
24,25,252457,275026,44928.9242,44928.92715,4126,若者 - 鳥,羽ばたく,2,新規項目,0,,2,,,,2,,
25,2,36755,138525,44928.92541,44928.92867,9829,鳥 - 飛行機,飛ぶ,2,NA,1,2,2,1,,,2,,NA
26,3,43539,138525,44928.92541,44928.92867,6768,剣 - 拳銃,殺す,1,殺すという共通点だけ,1,1,1,1,,,1,,殺すという共通点だけ
27,4,50203,138525,44928.92541,44928.92867,6660,みかん - ボール,丸い,1,NA,0,,1,,,,1,,
28,5,57259,138525,44928.92541,44928.92867,7053,太陽 - 電球,照らす,2,NA,1,2,2,1,,,2,,NA
29,6,62219,138525,44928.92541,44928.92867,4958,紙 - 葉っぱ,薄い,1,NA,0,,1,,,,1,,
30,7,68891,138525,44928.92541,44928.92867,6669,山頂 - 針,尖っている,2,NA,0,,2,,,,2,,
31,8,77459,138525,44928.92541,44928.92867,8566,道 - 川,真っ直ぐ,1,真っ直ぐ伸びるとは限らないが,0,,1,,,,1,,
32,9,92819,138525,44928.92541,44928.92867,15357,愛 - 薬物,止められない,2,"2点とした（1→2, v3）",0,,2,,,,2,,
33,10,98795,138525,44928.92541,44928.92867,5974,山 - 障害物,大きい,1,SHにない(難しさ),0,,1,,,,1,,
34,11,115227,138525,44928.92541,44928.92867,16429,輪っか - ネックレス,真ん中が空いている,1,NA,0,,1,,,,1,,
35,12,131123,138525,44928.92541,44928.92867,15893,孤独 - 砂漠,寂しい,1,悲しいの同義; SHにない,0,,1,,,,1,,
36,13,143835,138525,44928.92541,44928.92867,12709,なぞなぞ - 迷宮,謎解き,2,パズルと同義か,0,,2,,,,2,,
37,14,155012,138525,44928.92541,44928.92867,11173,時間 - 川,流れる,2,NA,0,,2,,,,2,,
38,15,165939,138525,44928.92541,44928.92867,10925,会社 - 木,軸,0,不完全な回答,0,,0,,,,0,,
39,16,174075,138525,44928.92541,44928.92867,8133,酒場 - 教会,集合場所,2,SHにないが全体的特徴は捉えている,0,,2,,,,2,,
40,17,184499,138525,44928.92541,44928.92867,10422,理論 - 建物,構造,2,組織的な構造と同義か,0,,2,,,,2,,
41,18,193466,138525,44928.92541,44928.92867,8965,ダイヤモンド - 雪片,輝いている,1,NA,0,,1,,,,1,,
42,19,216530,138525,44928.92541,44928.92867,23061,記憶 - 牢獄,苦痛,1,ストレスにつながると同義,0,,1,,,,1,,
43,20,229474,138525,44928.92541,44928.92867,12942,鍵 - 答え,開く,1,NA,0,,1,,,,1,,
44,21,237091,138525,44928.92541,44928.92867,7614,結婚 - 合金,幸福,0,合金に幸福は含まれない,0,,0,,,,0,,
45,22,248355,138525,44928.92541,44928.92867,11262,思考 - 網,入り乱れる,1,つながっていると同じ,0,,1,,,,1,,
46,23,261107,138525,44928.92541,44928.92867,12750,学位 - 橋,繋がる,2,NA,0,,2,,,,2,,
47,24,267451,138525,44928.92541,44928.92867,6342,美術館 - 墓,古い,1,部分的に特徴が一致している,0,,1,,,,1,,
48,25,278395,138525,44928.92541,44928.92867,10941,若者 - 鳥,若い,0,同語反復か,0,,0,,,,0,,
49,2,43650,266202,44928.92409,44928.92984,17485,鳥 - 飛行機,空を飛ぶ,2,NA,0,,2,,,,2,,
50,3,52058,266202,44928.92409,44928.92984,8406,剣 - 拳銃,武器となる,2,NA,1,2,2,1,,,2,,NA
51,4,61987,266202,44928.92409,44928.92984,9927,みかん - ボール,丸い,1,NA,0,,1,,,,1,,
52,5,69546,266202,44928.92409,44928.92984,7557,太陽 - 電球,光る,2,NA,0,,2,,,,2,,
53,6,82426,266202,44928.92409,44928.92984,12879,紙 - 葉っぱ,薄い,1,NA,0,,1,,,,1,,
54,7,96930,266202,44928.92409,44928.92984,14503,山頂 - 針,先端が細い,1,細く鋭いが尖るなので、細いだけだと部分,0,,1,,,,1,,
55,8,106058,266202,44928.92409,44928.92984,9126,道 - 川,細長い,1,NA,1,1,1,1,,,1,,NA
56,9,119331,266202,44928.92409,44928.92984,13271,愛 - 薬物,依存しやすい,2,"2点とした（1→2, v3）",1,2,2,1,,,2,,"2点とした（1→2, v3）"
57,10,128786,266202,44928.92409,44928.92984,9454,山 - 障害物,超えるのに苦労する,2,乗り越えなければと同義,0,,2,,,,2,,
58,11,191689,266202,44928.92409,44928.92984,62902,輪っか - ネックレス,細い輪状のもの,2,リング状の亜種,0,,2,,,,2,,
59,12,220281,266202,44928.92409,44928.92984,28590,孤独 - 砂漠,自分以外の存在が見えない,1,NA,0,,1,,,,1,,
60,13,250401,266202,44928.92409,44928.92984,30118,なぞなぞ - 迷宮,正解に辿り着きにくい,2,道筋が分かりにくいと同義か,1,2,2,1,,,2,,道筋が分かりにくいと同義か
61,14,257018,266202,44928.92409,44928.92984,6615,時間 - 川,流れる,2,NA,0,,2,,,,2,,
62,15,302050,266202,44928.92409,44928.92984,45030,会社 - 木,根が腐るとおしまい,1,強い基盤/土台を持つと同じか？; SHにない,0,,1,,,,1,,
63,16,309921,266202,44928.92409,44928.92984,7870,酒場 - 教会,人が集まる,2,NA,0,,2,,,,2,,
64,17,319978,266202,44928.92409,44928.92984,10055,理論 - 建物,設計が大事,1,設計していると同義か,0,,1,,,,1,,
65,18,336305,266202,44928.92409,44928.92984,16326,ダイヤモンド - 雪片,キラキラ光る,1,きらめくと同義; SHにない,0,,1,,,,1,,
66,19,348665,266202,44928.92409,44928.92984,12358,記憶 - 牢獄,囚われる,2,NA,0,,2,,,,2,,
67,20,369353,266202,44928.92409,44928.92984,20686,鍵 - 答え,合わないと役に立たない,1,SHにないが部分的特徴は捉えている,0,,1,,,,1,,
68,21,379674,266202,44928.92409,44928.92984,10319,結婚 - 合金,結びつきが大事,2,2つの要素を一緒にすると同義,0,,2,,,,2,,
69,22,403545,266202,44928.92409,44928.92984,23869,思考 - 網,あちこちに張り巡らせる,2,NA,0,,2,,,,2,,
70,23,462361,266202,44928.92409,44928.92984,58815,学位 - 橋,あれば役に立つこともある。,1,部分的に特徴が一致している,0,,1,,,,1,,
71,24,476617,266202,44928.92409,44928.92984,14254,美術館 - 墓,静か,1,NA,0,,1,,,,1,,
72,25,494473,266202,44928.92409,44928.92984,17855,若者 - 鳥,羽ばたく,2,NA,0,,2,,,,2,,
73,2,28747,4551146,44928.92588,44928.93012,17504,鳥 - 飛行機,空を飛ぶところ,2,NA,0,,2,,,,2,,
74,3,38541,4551146,44928.92588,44928.93012,9790,剣 - 拳銃,人を攻撃できるところ,1,攻撃するという共通点だけ,1,1,1,1,,,1,,攻撃するという共通点だけ
75,4,48059,4551146,44928.92588,44928.93012,9513,みかん - ボール,形が丸いところ,1,NA,0,,1,,,,1,,
76,5,59565,4551146,44928.92588,44928.93012,11501,太陽 - 電球,明かりとなるところ,2,光源と同じ,0,,2,,,,2,,
77,6,70429,4551146,44928.92588,44928.93012,10859,紙 - 葉っぱ,薄いところ,1,NA,0,,1,,,,1,,
78,7,78327,4551146,44928.92588,44928.93012,7894,山頂 - 針,とがっているところ,2,NA,0,,2,,,,2,,
79,8,99822,4551146,44928.92588,44928.93012,21490,道 - 川,長くのびているところ,1,NA,0,,1,,,,1,,
80,9,108857,4551146,44928.92588,44928.93012,9031,愛 - 薬物,依存性があるところ,2,"2点とした（1→2, v3）",0,,2,,,,2,,
81,10,127188,4551146,44928.92588,44928.93012,18326,山 - 障害物,越えなければならないところ,2,乗り越えなければと同義,0,,2,,,,2,,
82,11,143329,4551146,44928.92588,44928.93012,16136,輪っか - ネックレス,円状になっているところ,2,NA,0,,2,,,,2,,
83,12,151897,4551146,44928.92588,44928.93012,8563,孤独 - 砂漠,なにもないところ,2,孤立しているの同義; SHにない,0,,2,,,,2,,
84,13,159369,4551146,44928.92588,44928.93012,7467,なぞなぞ - 迷宮,悩むところ,1,複雑だと同じか,0,,1,,,,1,,
85,14,165699,4551146,44928.92588,44928.93012,6326,時間 - 川,流れているところ,2,NA,0,,2,,,,2,,
86,15,188289,4551146,44928.92588,44928.93012,22585,会社 - 木,成長するところ,1,NA,0,,1,,,,1,,
87,16,206391,4551146,44928.92588,44928.93012,18098,酒場 - 教会,賑やかなところ,1,人が集まるの下位概念か？,0,,1,,,,1,,
88,17,214013,4551146,44928.92588,44928.93012,7618,理論 - 建物,構築するところ,2,NA,0,,2,,,,2,,
89,18,227419,4551146,44928.92588,44928.93012,13401,ダイヤモンド - 雪片,形が似ているところ,1,SHにない,0,,1,,,,1,,
90,19,252399,4551146,44928.92588,44928.93012,24975,記憶 - 牢獄,囚われるところ,2,NA,1,2,2,1,,,2,,NA
91,20,285996,4551146,44928.92588,44928.93012,33593,鍵 - 答え,どちらも問題に関するもの,0,説明不足,0,,0,,,,0,,
92,21,297940,4551146,44928.92588,44928.93012,11939,結婚 - 合金,2つ結びつくところ,2,2つの要素を一緒にすると同義,0,,2,,,,2,,
93,22,307688,4551146,44928.92588,44928.93012,9743,思考 - 網,複雑なところ,1,新規項目,1,1,1,1,,,1,,新規項目
94,23,339620,4551146,44928.92588,44928.93012,31927,学位 - 橋,高いところへのぼっていくところ,1,そういう橋があるのは事実,0,,1,,,,1,,
95,24,350394,4551146,44928.92588,44928.93012,10770,美術館 - 墓,静かなところ,1,NA,0,,1,,,,1,,
96,25,364551,4551146,44928.92588,44928.93012,14154,若者 - 鳥,勢いがあるところ,1,部分的に特徴が一致している,0,,1,,,,1,,
97,2,29649,297683,44928.92615,44928.93041,16966,鳥 - 飛行機,飛ぶもの,2,NA,0,,2,,,,2,,
98,3,40141,297683,44928.92615,44928.93041,10472,剣 - 拳銃,武器である,2,NA,0,,2,,,,2,,
99,4,51816,297683,44928.92615,44928.93041,11671,みかん - ボール,丸いもの,1,NA,1,1,1,1,,,1,,NA
100,5,64414,297683,44928.92615,44928.93041,12594,太陽 - 電球,明るさを提供,1,明るいと近いか,0,,1,,,,1,,
101,6,76443,297683,44928.92615,44928.93041,12025,紙 - 葉っぱ,燃えやすい,1,燃えないものもあるから悩ましい,1,1,1,1,,,1,,燃えないものもあるから悩ましい
102,7,91571,297683,44928.92615,44928.93041,15124,山頂 - 針,尖っている,2,NA,0,,2,,,,2,,
103,8,107316,297683,44928.92615,44928.93041,15742,道 - 川,分岐している,1,分岐するとは限らないが,0,,1,,,,1,,
104,9,135920,297683,44928.92615,44928.93041,28600,愛 - 薬物,中毒になる可能性,2,NA,0,,2,,,,2,,
105,10,152206,297683,44928.92615,44928.93041,16282,山 - 障害物,通行の邪魔になる,2,NA,0,,2,,,,2,,
106,11,163992,297683,44928.92615,44928.93041,11778,輪っか - ネックレス,丸い,2,NA,0,,2,,,,2,,
107,12,180487,297683,44928.92615,44928.93041,16492,孤独 - 砂漠,死の可能性,1,SHにない(難しさ),0,,1,,,,1,,
108,13,197191,297683,44928.92615,44928.93041,16700,なぞなぞ - 迷宮,理解が難しい,1,複雑だと同じか,0,,1,,,,1,,
109,14,210964,297683,44928.92615,44928.93041,13771,時間 - 川,流れるもの,2,NA,0,,2,,,,2,,
110,15,229014,297683,44928.92615,44928.93041,18047,会社 - 木,屋台骨である,1,強い基盤/土台を持つと同じか？; SHにない,0,,1,,,,1,,
111,16,237431,297683,44928.92615,44928.93041,8414,酒場 - 教会,人が集う,2,NA,0,,2,,,,2,,
112,17,248548,297683,44928.92615,44928.93041,11114,理論 - 建物,組み立てるもの,2,構築するものと同義か,0,,2,,,,2,,
113,18,259165,297683,44928.92615,44928.93041,10613,ダイヤモンド - 雪片,きらきらしている,1,NA,1,1,1,1,,,1,,NA
114,19,270955,297683,44928.92615,44928.93041,11785,記憶 - 牢獄,閉じ込める,2,NA,0,,2,,,,2,,
115,20,291810,297683,44928.92615,44928.93041,20851,鍵 - 答え,解決策である,1,NA,1,,1,,,,1,,
116,21,304584,297683,44928.92615,44928.93041,12771,結婚 - 合金,指輪,1,SHにないが部分的特徴は捉えている,0,,1,,,,1,,
117,22,316628,297683,44928.92615,44928.93041,12041,思考 - 網,張り巡らせる,2,NA,0,,2,,,,2,,
118,23,335692,297683,44928.92615,44928.93041,19060,学位 - 橋,得るもの,0,橋は得るものではない（一般的に）,0,,0,,,,0,,
119,24,352052,297683,44928.92615,44928.93041,16356,美術館 - 墓,人が集う場所,1,NA,0,,1,,,,1,,
120,25,364075,297683,44928.92615,44928.93041,12020,若者 - 鳥,飛び立つ,2,NA,0,,2,,,,2,,
121,2,22350,276409,44928.92443,44928.93134,14267,鳥 - 飛行機,空を飛ぶ,2,NA,0,,2,,,,2,,
122,3,37053,276409,44928.92443,44928.93134,14700,剣 - 拳銃,人を傷つける,1,NA,0,,1,,,,1,,
123,4,44845,276409,44928.92443,44928.93134,7789,みかん - ボール,丸い,1,NA,0,,1,,,,1,,
124,5,58589,276409,44928.92443,44928.93134,13741,太陽 - 電球,丸くて光る,2,光が上位概念,0,,2,,,,2,,
125,6,73413,276409,44928.92443,44928.93134,14821,紙 - 葉っぱ,薄い,1,NA,0,,1,,,,1,,
126,7,82157,276409,44928.92443,44928.93134,8740,山頂 - 針,先がとがっている,2,NA,0,,2,,,,2,,
127,8,101629,276409,44928.92443,44928.93134,19469,道 - 川,長く続いている,1,NA,0,,1,,,,1,,
128,9,111021,276409,44928.92443,44928.93134,9389,愛 - 薬物,離れられない,2,"2点とした（1→2, v3）",0,,2,,,,2,,
129,10,122205,276409,44928.92443,44928.93134,11181,山 - 障害物,高い,1,高いとは限らないが,0,,1,,,,1,,
130,11,134349,276409,44928.92443,44928.93134,12140,輪っか - ネックレス,穴が開いている,1,真ん中に空白があるの亜種,0,,1,,,,1,,
131,12,146007,276409,44928.92443,44928.93134,11655,孤独 - 砂漠,他に何もない,2,孤立しているの同義; SHにない,0,,2,,,,2,,
132,13,152445,276409,44928.92443,44928.93134,6434,なぞなぞ - 迷宮,分からない,2,解決できないと同義,0,,2,,,,2,,
133,14,159029,276409,44928.92443,44928.93134,6582,時間 - 川,流れていく,2,NA,0,,2,,,,2,,
134,15,210541,276409,44928.92443,44928.93134,51509,会社 - 木,たくさん枝葉が付いている,2,分岐していると同義？/枝葉という表現は木だけにあてはまるか,0,,2,,,,2,,
135,16,258101,276409,44928.92443,44928.93134,47557,酒場 - 教会,人が集まる,2,NA,0,,2,,,,2,,
136,17,304143,276409,44928.92443,44928.93134,46038,理論 - 建物,しっかり組み立てられている,2,NA,1,2,2,1,,,2,,NA
137,18,333094,276409,44928.92443,44928.93134,28946,ダイヤモンド - 雪片,輝いている,1,NA,0,,1,,,,1,,
138,19,364164,276409,44928.92443,44928.93134,31062,記憶 - 牢獄,簡単に抜けられない,2,逃げられないと同義,0,,2,,,,2,,
139,20,424828,276409,44928.92443,44928.93134,60661,鍵 - 答え,合わせる,1,SHにないが部分的特徴は捉えている,0,,1,,,,1,,
140,21,449252,276409,44928.92443,44928.93134,24420,結婚 - 合金,組み合わさっている,1,NA,0,,1,,,,1,,
141,22,478228,276409,44928.92443,44928.93134,28973,思考 - 網,目がある,1,新規項目,0,,1,,,,1,,
142,23,512556,276409,44928.92443,44928.93134,34324,学位 - 橋,何かにつながる,2,NA,0,,2,,,,2,,
143,24,566092,276409,44928.92443,44928.93134,53533,美術館 - 墓,静か,1,NA,0,,1,,,,1,,
144,25,593667,276409,44928.92443,44928.93134,27573,若者 - 鳥,羽ばたく,2,NA,0,,2,,,,2,,
145,2,35900,707767,44928.92626,44928.93157,13220,鳥 - 飛行機,飛ぶもの,2,NA,0,,2,,,,2,,
146,3,44988,707767,44928.92626,44928.93157,9080,剣 - 拳銃,武器,2,NA,0,,2,,,,2,,
147,4,49107,707767,44928.92626,44928.93157,4111,みかん - ボール,丸い,1,NA,0,,1,,,,1,,
148,5,56051,707767,44928.92626,44928.93157,6935,太陽 - 電球,明るい,1,NA,0,,1,,,,1,,
149,6,64220,707767,44928.92626,44928.93157,8160,紙 - 葉っぱ,薄い,1,NA,0,,1,,,,1,,
150,7,75156,707767,44928.92626,44928.93157,10929,山頂 - 針,尖っている,2,NA,0,,2,,,,2,,
151,8,88660,707767,44928.92626,44928.93157,13496,道 - 川,長く続いている,1,NA,0,,1,,,,1,,
152,9,95083,707767,44928.92626,44928.93157,6414,愛 - 薬物,救う,0,人を救うとは限らない,0,,0,,,,0,,
153,10,100852,707767,44928.92626,44928.93157,5762,山 - 障害物,乗り越える,2,NA,0,,2,,,,2,,
154,11,123131,707767,44928.92626,44928.93157,22269,輪っか - ネックレス,円形,2,NA,0,,2,,,,2,,
155,12,136236,707767,44928.92626,44928.93157,13095,孤独 - 砂漠,乾く,0,砂漠にしかあてはまらない,0,,0,,,,0,,
156,13,173106,707767,44928.92626,44928.93157,36861,なぞなぞ - 迷宮,答えを導きだす,2,解決できると同義; SHにない,0,,2,,,,2,,
157,14,185963,707767,44928.92626,44928.93157,12851,時間 - 川,流れる,2,NA,0,,2,,,,2,,
158,15,207275,707767,44928.92626,44928.93157,21303,会社 - 木,成長,1,NA,0,,1,,,,1,,
159,16,217923,707767,44928.92626,44928.93157,10638,酒場 - 教会,人が集まる,2,NA,0,,2,,,,2,,
160,17,226086,707767,44928.92626,44928.93157,8157,理論 - 建物,たてる,1,SHと同義か; 構造についての言及がない,0,,1,,,,1,,
161,18,255774,707767,44928.92626,44928.93157,29678,ダイヤモンド - 雪片,結晶,2,結晶構造と同義,1,2,2,1,,,2,,結晶構造と同義
162,19,265193,707767,44928.92626,44928.93157,9410,記憶 - 牢獄,閉じ込める,2,NA,0,,2,,,,2,,
163,20,324428,707767,44928.92626,44928.93157,59220,鍵 - 答え,ポイント,0,説明不足,0,,0,,,,0,,
164,21,335499,707767,44928.92626,44928.93157,11062,結婚 - 合金,固い,1,SHにないが部分的特徴は捉えている,0,,1,,,,1,,
165,22,368890,707767,44928.92626,44928.93157,33384,思考 - 網,巡らせる,2,張り巡らせると同義か,1,2,2,1,,,2,,張り巡らせると同義か
166,23,429204,707767,44928.92626,44928.93157,60305,学位 - 橋,綱渡り,1,落ち着かないは部分一致,0,,1,,,,1,,
167,24,440955,707767,44928.92626,44928.93157,11742,美術館 - 墓,眠る,2,人/ものが眠るはありそう,1,1,2,0,2,2,2,,人/ものが眠るはありそう（採点基準には眠るを入れているが）
168,25,456787,707767,44928.92626,44928.93157,15824,若者 - 鳥,真似,0,意味不明,0,,0,,,,0,,
169,2,51270,4660661,44928.92493,44928.93228,22622,鳥 - 飛行機,空を飛んでいる,2,NA,0,,2,,,,2,,
170,3,57685,4660661,44928.92493,44928.93228,6412,剣 - 拳銃,武器,2,NA,0,,2,,,,2,,
171,4,68023,4660661,44928.92493,44928.93228,10333,みかん - ボール,丸い形,1,NA,0,,1,,,,1,,
172,5,73591,4660661,44928.92493,44928.93228,5563,太陽 - 電球,明るい,1,NA,0,,1,,,,1,,
173,6,103238,4660661,44928.92493,44928.93228,29642,紙 - 葉っぱ,木から出来ている,2,木製なら2→同地とみなす,1,2,2,1,,,2,,木製なら2→同地とみなす
174,7,110781,4660661,44928.92493,44928.93228,7538,山頂 - 針,尖っている,2,NA,0,,2,,,,2,,
175,8,129233,4660661,44928.92493,44928.93228,18448,道 - 川,長く続いている,1,NA,0,,1,,,,1,,
176,9,145107,4660661,44928.92493,44928.93228,15870,愛 - 薬物,依存している,2,"2点とした（1→2, v3）",0,,2,,,,2,,
177,10,154779,4660661,44928.92493,44928.93228,9668,山 - 障害物,立ちはだかっている,2,障害になると胴着か,0,,2,,,,2,,
178,11,177910,4660661,44928.92493,44928.93228,23126,輪っか - ネックレス,輪になって繋がっている,2,閉じた輪の亜種,0,,2,,,,2,,
179,12,192496,4660661,44928.92493,44928.93228,14582,孤独 - 砂漠,何もないような,2,NA,0,,2,,,,2,,
180,13,212762,4660661,44928.92493,44928.93228,20261,なぞなぞ - 迷宮,こんがらがっている,1,複雑だと同義; SHにない,0,,1,,,,1,,
181,14,235854,4660661,44928.92493,44928.93228,23089,時間 - 川,ずっと続いている,1,連続すると同義か,1,2,1,0,1,1,1,,連続すると同義か
182,15,251224,4660661,44928.92493,44928.93228,15367,会社 - 木,そびえ立っている,1,SHにないが部分的特徴は捉えている,0,,1,,,,1,,
183,16,299880,4660661,44928.92493,44928.93228,48652,酒場 - 教会,人が集まる場所,2,NA,0,,2,,,,2,,
184,17,325657,4660661,44928.92493,44928.93228,25774,理論 - 建物,考えに基づかれている,1,アイデアから生まれると同義か,0,,1,,,,1,,
185,18,338635,4660661,44928.92493,44928.93228,12973,ダイヤモンド - 雪片,結晶,2,NA,0,,2,,,,2,,
186,19,345413,4660661,44928.92493,44928.93228,6774,記憶 - 牢獄,囚われている,2,NA,1,2,2,1,,,2,,NA
187,20,377192,4660661,44928.92493,44928.93228,31776,鍵 - 答え,どちらも英語でキーという,0,同義語に関する説明,0,,0,,,,0,,
188,21,419063,4660661,44928.92493,44928.93228,41866,結婚 - 合金,硬い石（意思）で出来ている,1,SHにないが部分的特徴は捉えている,0,,1,,,,1,,
189,22,437113,4660661,44928.92493,44928.93228,18046,思考 - 網,絡み合っている,1,新規項目,0,,1,,,,1,,
190,23,553194,4660661,44928.92493,44928.93228,116078,学位 - 橋,多くを繋いでいる,2,NA,1,,2,,,,2,,
191,24,563665,4660661,44928.92493,44928.93228,10467,美術館 - 墓,静かな場所,1,NA,0,,1,,,,1,,
192,25,633155,4660661,44928.92493,44928.93228,69485,若者 - 鳥,（思考など）飛んでいる,0,思考が飛ぶかは微妙,1,,0,,,,0,,
193,2,29510,4632782,44928.9287,44928.93244,16408,鳥 - 飛行機,飛ぶ,2,NA,0,,2,,,,2,,
194,3,40749,4632782,44928.9287,44928.93244,11237,剣 - 拳銃,戦いに使う,1,NA,0,,1,,,,1,,
195,4,45919,4632782,44928.9287,44928.93244,5166,みかん - ボール,丸い,1,NA,0,,1,,,,1,,
196,5,50453,4632782,44928.9287,44928.93244,4530,太陽 - 電球,明るい,1,NA,0,,1,,,,1,,
197,6,56877,4632782,44928.9287,44928.93244,6420,紙 - 葉っぱ,薄い,1,NA,0,,1,,,,1,,
198,7,65681,4632782,44928.9287,44928.93244,8801,山頂 - 針,尖っている,2,NA,0,,2,,,,2,,
199,8,73928,4632782,44928.9287,44928.93244,8244,道 - 川,続いている,1,NA,0,,1,,,,1,,
200,9,87053,4632782,44928.9287,44928.93244,13122,愛 - 薬物,はまる,2,"2点とした（1→2, v3）",0,,2,,,,2,,
201,10,94447,4632782,44928.9287,44928.93244,7391,山 - 障害物,邪魔になる,2,NA,1,2,2,1,,,2,,NA
202,11,124631,4632782,44928.9287,44928.93244,30179,輪っか - ネックレス,つながっている,1,NA,0,,1,,,,1,,
203,12,130631,4632782,44928.9287,44928.93244,5996,孤独 - 砂漠,ひとりぼっち,2,孤立しているの同義; SHにない,0,,2,,,,2,,
204,13,141459,4632782,44928.9287,44928.93244,10825,なぞなぞ - 迷宮,ハマったら抜けられない,2,道筋が分かりにくいと同義か,0,,2,,,,2,,
205,14,152145,4632782,44928.9287,44928.93244,10683,時間 - 川,常に流れている,2,NA,0,,2,,,,2,,
206,15,181011,4632782,44928.9287,44928.93244,28863,会社 - 木,たっている,1,SHにないが部分的特徴は捉えている,1,1,1,1,,,1,,SHにないが部分的特徴は捉えている
207,16,191488,4632782,44928.9287,44928.93244,10473,酒場 - 教会,RPGに出てくる,1,一般的ではないが、部分,0,,1,,,,1,,
208,17,198903,4632782,44928.9287,44928.93244,7412,理論 - 建物,組み立てる,2,構築するものと同義か,0,,2,,,,2,,
209,18,219262,4632782,44928.9287,44928.93244,20355,ダイヤモンド - 雪片,細かい,1,繊細だと同義か,0,,1,,,,1,,
210,19,231312,4632782,44928.9287,44928.93244,12044,記憶 - 牢獄,深いところにもある,1,SHにないが部分的特徴は捉えている,1,1,1,1,,,1,,SHにないが部分的特徴は捉えている
211,20,251043,4632782,44928.9287,44928.93244,19728,鍵 - 答え,正解につながる,1,問題を解決すると同義か,0,,1,,,,1,,
212,21,261523,4632782,44928.9287,44928.93244,10476,結婚 - 合金,合わせる,2,NA,1,2,2,1,,,2,,NA
213,22,284615,4632782,44928.9287,44928.93244,23089,思考 - 網,つながっている,1,NA,0,,1,,,,1,,
214,23,290075,4632782,44928.9287,44928.93244,5457,学位 - 橋,高い,1,NA,0,,1,,,,1,,
215,24,306817,4632782,44928.9287,44928.93244,16738,美術館 - 墓,石がある,1,部分的に特徴が一致している,0,,1,,,,1,,
216,25,318535,4632782,44928.9287,44928.93244,11715,若者 - 鳥,自由がある,1,要相談; 2か1→1,0,,1,,,,1,,
217,2,46579,2942272,44928.9261,44928.93277,23059,鳥 - 飛行機,空中を飛ぶもの,2,NA,0,,2,,,,2,,
218,3,58085,2942272,44928.9261,44928.93277,11503,剣 - 拳銃,身を守る物,1,NA,0,,1,,,,1,,
219,4,72341,2942272,44928.9261,44928.93277,14253,みかん - ボール,おおむね丸い物,1,NA,0,,1,,,,1,,
220,5,93990,2942272,44928.9261,44928.93277,21647,太陽 - 電球,その物自体が光る物,2,NA,0,,2,,,,2,,
221,6,114498,2942272,44928.9261,44928.93277,20505,紙 - 葉っぱ,比較的薄く平たいものが多い,1,NA,0,,1,,,,1,,
222,7,122700,2942272,44928.9261,44928.93277,8200,山頂 - 針,先っぽ,0,先っぽだけでは無意味,1,1,0,0,1,1,1,,先っぽだけでは無意味→部分的な共通点(v5.1)
223,8,141861,2942272,44928.9261,44928.93277,19159,道 - 川,人が交通の手段として使う物,2,交通路の亜種か,1,2,2,1,,,2,,交通路の亜種か
224,9,155983,2942272,44928.9261,44928.93277,14119,愛 - 薬物,気分が落ち着く物,1,KHにない,0,,1,,,,1,,
225,10,167161,2942272,44928.9261,44928.93277,11176,山 - 障害物,隔てる物,1,邪魔になると言った、評価の軸が必要か,0,,1,,,,1,,
226,11,226816,2942272,44928.9261,44928.93277,59651,輪っか - ネックレス,多くの物は細く円形に繋がっている,2,NA,0,,2,,,,2,,
227,12,255068,2942272,44928.9261,44928.93277,28249,孤独 - 砂漠,周りに人がいない状態,2,NA,0,,2,,,,2,,
228,13,274284,2942272,44928.9261,44928.93277,19214,なぞなぞ - 迷宮,色々と考えながら楽しむ物,0,迷宮は楽しむものではないのでは,0,,0,,,,0,,
229,14,289532,2942272,44928.9261,44928.93277,15246,時間 - 川,止まること無く流れる物,2,NA,0,,2,,,,2,,
230,15,319213,2942272,44928.9261,44928.93277,29678,会社 - 木,倒れなさそうで倒れてしまう物,1,SHにないが部分的特徴は捉えている,0,,1,,,,1,,
231,16,341572,2942272,44928.9261,44928.93277,22357,酒場 - 教会,その場に1人は説教する人がいる,1,一般的ではないが、部分,0,,1,,,,1,,
232,17,360005,2942272,44928.9261,44928.93277,18430,理論 - 建物,ごちゃごちゃしている,1,一般的な回答かはわからない,0,,1,,,,1,,
233,18,386044,2942272,44928.9261,44928.93277,26036,ダイヤモンド - 雪片,だいたいの人が見て美しいと感じる物,1,SHにないが部分的特徴は捉えている,0,,1,,,,1,,
234,19,419444,2942272,44928.9261,44928.93277,33398,記憶 - 牢獄,閉じ込め置くけどいつの間にかいなくなってるもの,2,閉じ込めるに言及されている,0,,2,,,,2,,
235,20,452788,2942272,44928.9261,44928.93277,33341,鍵 - 答え,行動の目的,0,説明不足,0,,0,,,,0,,
236,21,475124,2942272,44928.9261,44928.93277,22333,結婚 - 合金,上手く合わさると強い,2,NA,1,2,2,1,,,2,,NA
237,22,505020,2942272,44928.9261,44928.93277,29894,思考 - 網,引っかかるものもあるけど大体はすり抜けいてくもの,1,目があると同種か; 新規項目,0,,1,,,,1,,
238,23,528964,2942272,44928.9261,44928.93277,23941,学位 - 橋,行き先への単なる手段となる物,2,現在地と目的地を繋ぐに関連か,0,,2,,,,2,,
239,24,557420,2942272,44928.9261,44928.93277,28453,美術館 - 墓,過去の遺物,1,部分的に特徴が一致している,0,,1,,,,1,,
240,25,572339,2942272,44928.9261,44928.93277,14917,若者 - 鳥,自由なようでそうでもないもの,1,要相談; 2か1→1,1,,1,,,,1,,
241,2,38901,3043448,44928.92896,44928.93309,26464,鳥 - 飛行機,空を飛ぶ,2,NA,0,,2,,,,2,,
242,3,70807,3043448,44928.92896,44928.93309,31772,剣 - 拳銃,人を傷つける,1,NA,0,,1,,,,1,,
243,4,77383,3043448,44928.92896,44928.93309,6571,みかん - ボール,丸い,1,NA,0,,1,,,,1,,
244,5,88576,3043448,44928.92896,44928.93309,11175,太陽 - 電球,照らす,2,NA,0,,2,,,,2,,
245,6,96095,3043448,44928.92896,44928.93309,7515,紙 - 葉っぱ,薄い,1,NA,0,,1,,,,1,,
246,7,107439,3043448,44928.92896,44928.93309,11340,山頂 - 針,尖っている,2,NA,0,,2,,,,2,,
247,8,118872,3043448,44928.92896,44928.93309,11429,道 - 川,長く続く,1,NA,0,,1,,,,1,,
248,9,136456,3043448,44928.92896,44928.93309,17578,愛 - 薬物,癒される,1,KHにない,0,,1,,,,1,,
249,10,144152,3043448,44928.92896,44928.93309,7693,山 - 障害物,大きい,1,NA,0,,1,,,,1,,
250,11,151472,3043448,44928.92896,44928.93309,7315,輪っか - ネックレス,円,2,NA,0,,2,,,,2,,
251,12,161464,3043448,44928.92896,44928.93309,9971,孤独 - 砂漠,寂しい,1,悲しいの同義; SHにない,0,,1,,,,1,,
252,13,181800,3043448,44928.92896,44928.93309,20333,なぞなぞ - 迷宮,解く,2,解決できると同義; SHにない,1,2,2,1,,,2,,解決できると同義; SHにない
253,14,186632,3043448,44928.92896,44928.93309,4828,時間 - 川,流れる,2,NA,0,,2,,,,2,,
254,15,200712,3043448,44928.92896,44928.93309,14076,会社 - 木,成長する,1,NA,0,,1,,,,1,,
255,16,209048,3043448,44928.92896,44928.93309,8332,酒場 - 教会,人が集まる,2,NA,0,,2,,,,2,,
256,17,217248,3043448,44928.92896,44928.93309,8192,理論 - 建物,土台がしっかりしている,2,強固な基盤があると同義か,0,,2,,,,2,,
257,18,228784,3043448,44928.92896,44928.93309,11530,ダイヤモンド - 雪片,輝く,1,NA,0,,1,,,,1,,
258,19,251039,3043448,44928.92896,44928.93309,22224,記憶 - 牢獄,囲われる,1,囲われるは抜け出せる要素があるため、部分的特徴,0,,1,,,,1,,
259,20,258759,3043448,44928.92896,44928.93309,7717,鍵 - 答え,正解,1,NA,0,,1,,,,1,,
260,21,277520,3043448,44928.92896,44928.93309,18756,結婚 - 合金,二つ一緒になる,2,NA,0,,2,,,,2,,
261,22,298712,3043448,44928.92896,44928.93309,21187,思考 - 網,細かくつながる,1,NA,0,,1,,,,1,,
262,23,330632,3043448,44928.92896,44928.93309,31915,学位 - 橋,新しい場所に行ける,1,一般性を欠くがそういう場合もある,0,,1,,,,1,,
263,24,337264,3043448,44928.92896,44928.93309,6620,美術館 - 墓,静謐,1,NA,1,1,1,1,,,1,,NA
264,25,355351,3043448,44928.92896,44928.93309,18083,若者 - 鳥,どこかに飛びたてる,2,NA,0,,2,,,,2,,
265,2,27481,2400065,44928.92927,44928.93317,12799,鳥 - 飛行機,空を飛ぶもの,2,NA,0,,2,,,,2,,
266,3,33345,2400065,44928.92927,44928.93317,5859,剣 - 拳銃,武器,2,NA,0,,2,,,,2,,
267,4,39400,2400065,44928.92927,44928.93317,6052,みかん - ボール,丸い,1,NA,0,,1,,,,1,,
268,5,45465,2400065,44928.92927,44928.93317,6061,太陽 - 電球,光る,2,NA,0,,2,,,,2,,
269,6,56761,2400065,44928.92927,44928.93317,11292,紙 - 葉っぱ,セルロース,0,紙はセルロースではない場合もある,1,2,0,0,2,2,2,,紙はセルロースではない場合もある→採点基準表も更新(v5.1)
270,7,64409,2400065,44928.92927,44928.93317,7645,山頂 - 針,先端がある,1,先端が尖るのがポイント,1,1,1,1,,,1,,先端が尖るのがポイント
271,8,75737,2400065,44928.92927,44928.93317,11324,道 - 川,繋がっている,1,NA,0,,1,,,,1,,
272,9,81977,2400065,44928.92927,44928.93317,6235,愛 - 薬物,依存性がある,2,"2点とした（1→2, v3）",0,,2,,,,2,,
273,10,98096,2400065,44928.92927,44928.93317,16116,山 - 障害物,越える必要がある,2,NA,0,,2,,,,2,,
274,11,117344,2400065,44928.92927,44928.93317,19243,輪っか - ネックレス,丸い,2,NA,0,,2,,,,2,,
275,12,136505,2400065,44928.92927,44928.93317,19157,孤独 - 砂漠,ぽつんとしている,2,孤立しているの同義; SHにない,0,,2,,,,2,,
276,13,157552,2400065,44928.92927,44928.93317,21043,なぞなぞ - 迷宮,解くのが難しい,1,"挑戦的, 複雑だと同義か",0,,1,,,,1,,
277,14,165679,2400065,44928.92927,44928.93317,8124,時間 - 川,流れている,2,NA,0,,2,,,,2,,
278,15,177999,2400065,44928.92927,44928.93317,12317,会社 - 木,そこにある,1,SHにはないが部分的特徴は捉えている; が、あまりに一般的か,0,,1,,,,1,,
279,16,189423,2400065,44928.92927,44928.93317,11417,酒場 - 教会,人が集まる,2,NA,0,,2,,,,2,,
280,17,195919,2400065,44928.92927,44928.93317,6492,理論 - 建物,構築する,2,NA,0,,2,,,,2,,
281,18,204423,2400065,44928.92927,44928.93317,8499,ダイヤモンド - 雪片,美しい,1,NA,1,1,1,1,,,1,,NA
282,19,218423,2400065,44928.92927,44928.93317,13989,記憶 - 牢獄,閉じ込められている,2,NA,0,,2,,,,2,,
283,20,240063,2400065,44928.92927,44928.93317,21636,鍵 - 答え,一致する,1,SHにないが部分的特徴は捉えている,0,,1,,,,1,,
284,21,265983,2400065,44928.92927,44928.93317,25916,結婚 - 合金,硬く連なる,1,NA,0,,1,,,,1,,
285,22,280286,2400065,44928.92927,44928.93317,14300,思考 - 網,張り巡らされている,2,NA,1,2,2,1,,,2,,NA
286,23,309630,2400065,44928.92927,44928.93317,29340,学位 - 橋,先がある,1,一般性を欠くがそういう場合もある,0,,1,,,,1,,
287,24,325614,2400065,44928.92927,44928.93317,15979,美術館 - 墓,記憶の展示,1,記憶を展示する方法,0,,1,,,,1,,
288,25,335870,2400065,44928.92927,44928.93317,10252,若者 - 鳥,飛びたつ,2,NA,0,,2,,,,2,,
289,2,53033,3985308,44928.92657,44928.93378,25662,鳥 - 飛行機,空を飛ぶところが似ている,2,NA,1,2,2,1,,,2,,NA
290,3,73113,3985308,44928.92657,44928.93378,19988,剣 - 拳銃,武器として使われる点が似ている,2,NA,0,,2,,,,2,,
291,4,83553,3985308,44928.92657,44928.93378,10434,みかん - ボール,丸い形をしている,1,NA,0,,1,,,,1,,
292,5,102898,3985308,44928.92657,44928.93378,19313,太陽 - 電球,空間を明るく照らす,2,NA,1,2,2,1,,,2,,NA
293,6,136202,3985308,44928.92657,44928.93378,33298,紙 - 葉っぱ,平らで裏表があり、書き込むこともできる,1,NA,0,,1,,,,1,,
294,7,147898,3985308,44928.92657,44928.93378,11692,山頂 - 針,頂点がある,1,KHにない,0,,1,,,,1,,
295,8,189474,3985308,44928.92657,44928.93378,41571,道 - 川,自分がいる位置から先や後ろがある。続いている,1,続いているが1,0,,1,,,,1,,
296,9,196425,3985308,44928.92657,44928.93378,6948,愛 - 薬物,依存性がある,2,"2点とした（1→2, v3）",0,,2,,,,2,,
297,10,208938,3985308,44928.92657,44928.93378,12509,山 - 障害物,高さがあり険しい,1,険しいは苦労すると同義か,1,1,1,1,,,1,,険しいは苦労すると同義か
298,11,232025,3985308,44928.92657,44928.93378,23083,輪っか - ネックレス,円の形をしている,2,NA,0,,2,,,,2,,
299,12,251810,3985308,44928.92657,44928.93378,19771,孤独 - 砂漠,周りに何もない,2,孤立しているの同義; SHにない,0,,2,,,,2,,
300,13,274562,3985308,44928.92657,44928.93378,22746,なぞなぞ - 迷宮,迷うことが多い,1,混乱すると同義か; SHにない,0,,1,,,,1,,
301,14,296738,3985308,44928.92657,44928.93378,22172,時間 - 川,止まることなく流れている,2,NA,0,,2,,,,2,,
302,15,312122,3985308,44928.92657,44928.93378,15378,会社 - 木,長い年月をかけて成長する,1,NA,0,,1,,,,1,,
303,16,322330,3985308,44928.92657,44928.93378,10202,酒場 - 教会,心のよりどころ,1,安全を提供すると同義か,0,,1,,,,1,,
304,17,339674,3985308,44928.92657,44928.93378,17340,理論 - 建物,しっかりとした考えのもとに成り立つもの,1,アイデアから生まれると同義か,0,,1,,,,1,,
305,18,357618,3985308,44928.92657,44928.93378,17939,ダイヤモンド - 雪片,キラキラと輝いて美しい,1,NA,0,,1,,,,1,,
306,19,371154,3985308,44928.92657,44928.93378,13500,記憶 - 牢獄,囚われ続けるもの,2,NA,0,,2,,,,2,,
307,20,422098,3985308,44928.92657,44928.93378,50940,鍵 - 答え,先へ進めるきっかけとなるもの,2,新たな可能性をもたらすと同義か,1,,2,,,,2,,
308,21,473795,3985308,44928.92657,44928.93378,51690,結婚 - 合金,二つのものが合わさって成るもの,2,NA,0,,2,,,,2,,
309,22,504171,3985308,44928.92657,44928.93378,30371,思考 - 網,いくつものものが絡み合ってどこまでも続くもの,1,新規項目,0,,1,,,,1,,
310,23,544619,3985308,44928.92657,44928.93378,40443,学位 - 橋,着実に積み上げて完成させていくもの,1,作るの派生,0,,1,,,,1,,
311,24,588259,3985308,44928.92657,44928.93378,43621,美術館 - 墓,無機質で美しいもの、向き合えるものがある場所,1,向き合えるものがある,0,,1,,,,1,,
312,25,616179,3985308,44928.92657,44928.93378,27915,若者 - 鳥,未知の世界へ羽ばたいていく存在,2,NA,0,,2,,,,2,,
313,2,48214,1265342,44928.92586,44928.93394,10824,鳥 - 飛行機,飛ぶ,2,NA,0,,2,,,,2,,
314,3,60869,1265342,44928.92586,44928.93394,12651,剣 - 拳銃,武器,2,NA,0,,2,,,,2,,
315,4,68811,1265342,44928.92586,44928.93394,7940,みかん - ボール,丸い,1,NA,0,,1,,,,1,,
316,5,79163,1265342,44928.92586,44928.93394,10347,太陽 - 電球,光る,2,NA,0,,2,,,,2,,
317,6,96244,1265342,44928.92586,44928.93394,17072,紙 - 葉っぱ,薄い,1,NA,0,,1,,,,1,,
318,7,124112,1265342,44928.92586,44928.93394,27866,山頂 - 針,先が細い,1,鋭いが抜けているので1,0,,1,,,,1,,
319,8,135486,1265342,44928.92586,44928.93394,11371,道 - 川,流れる,1,NA,0,,1,,,,1,,
320,9,180155,1265342,44928.92586,44928.93394,44667,愛 - 薬物,依存,2,"2点とした（1→2, v3）",0,,2,,,,2,,
321,10,190695,1265342,44928.92586,44928.93394,10536,山 - 障害物,邪魔,2,NA,0,,2,,,,2,,
322,11,203915,1265342,44928.92586,44928.93394,13218,輪っか - ネックレス,繋がってる,1,SHにない,0,,1,,,,1,,
323,12,217537,1265342,44928.92586,44928.93394,13619,孤独 - 砂漠,何もない,2,NA,0,,2,,,,2,,
324,13,286234,1265342,44928.92586,44928.93394,68693,なぞなぞ - 迷宮,解くもの,2,解決できると同義; SHにない,0,,2,,,,2,,
325,14,299274,1265342,44928.92586,44928.93394,13036,時間 - 川,流れる,2,NA,0,,2,,,,2,,
326,15,403684,1265342,44928.92586,44928.93394,104408,会社 - 木,組織,2,階層的だ？,0,,2,,,,2,,
327,16,412850,1265342,44928.92586,44928.93394,9163,酒場 - 教会,人の集まり,2,NA,0,,2,,,,2,,
328,17,439703,1265342,44928.92586,44928.93394,26836,理論 - 建物,成り立つ物,1,小さな部品を積み重ねてできる都同義,0,,1,,,,1,,
329,18,465703,1265342,44928.92586,44928.93394,25997,ダイヤモンド - 雪片,綺麗,1,きらめく→うつくしいと同義か,0,,1,,,,1,,
330,19,474842,1265342,44928.92586,44928.93394,9134,記憶 - 牢獄,囚われる,2,NA,0,,2,,,,2,,
331,20,582186,1265342,44928.92586,44928.93394,107342,鍵 - 答え,解決するもの,1,NA,0,,1,,,,1,,
332,21,589136,1265342,44928.92586,44928.93394,6946,結婚 - 合金,合わさる,2,結合すると同義,0,,2,,,,2,,
333,22,604681,1265342,44928.92586,44928.93394,15541,思考 - 網,重なるもの,0,網はかさならなくないか？,0,,0,,,,1,,重なるはもともと1点（採点ミス; 2023/2/19）
334,23,659141,1265342,44928.92586,44928.93394,54458,学位 - 橋,渡すもの,2,現在地と目的地を繋ぐに関連か,0,,2,,,,2,,
335,24,677751,1265342,44928.92586,44928.93394,18606,美術館 - 墓,飾り物,1,骨/ものを飾るか,0,,1,,,,1,,
336,25,695101,1265342,44928.92586,44928.93394,17348,若者 - 鳥,自由がある,1,要相談; 2か1→1,0,,1,,,,1,,
337,2,28990,2613017,44928.92606,44928.93421,9741,鳥 - 飛行機,飛ぶもの,2,NA,0,,2,,,,2,,
338,3,37871,2613017,44928.92606,44928.93421,8873,剣 - 拳銃,武器になるもの,2,NA,0,,2,,,,2,,
339,4,48831,2613017,44928.92606,44928.93421,10946,みかん - ボール,丸いもの,1,NA,0,,1,,,,1,,
340,5,60075,2613017,44928.92606,44928.93421,11228,太陽 - 電球,明るいところが似ている,1,NA,0,,1,,,,1,,
341,6,70316,2613017,44928.92606,44928.93421,10226,紙 - 葉っぱ,薄いところが似ている,1,NA,0,,1,,,,1,,
342,7,111145,2613017,44928.92606,44928.93421,40815,山頂 - 針,どちらも先端が細くなっているところが似ている,1,NA,0,,1,,,,1,,
343,8,136417,2613017,44928.92606,44928.93421,25265,道 - 川,幅が広いところが似ている,1,幅が広いとは限らないが,0,,1,,,,1,,
344,9,151648,2613017,44928.92606,44928.93421,15216,愛 - 薬物,依存しているところが似ている,2,"2点とした（1→2, v3）",0,,2,,,,2,,
345,10,184804,2613017,44928.92606,44928.93421,33142,山 - 障害物,進むことが困難なところが似ている,1,困難は苦労と同じか,0,,1,,,,1,,
346,11,213816,2613017,44928.92606,44928.93421,28996,輪っか - ネックレス,丸い形状なところが似ている,2,丸いが上位概念,0,,2,,,,2,,
347,12,239595,2613017,44928.92606,44928.93421,25765,孤独 - 砂漠,一人でいると寂しいところが似ている,1,悲しいの同義; SHにない,0,,1,,,,1,,
348,13,261408,2613017,44928.92606,44928.93421,21796,なぞなぞ - 迷宮,どちらも頭を悩ませるところが似ている,1,混乱すると同義か; SHにない,0,,1,,,,1,,
349,14,271224,2613017,44928.92606,44928.93421,9803,時間 - 川,流れていくところが似ている,2,NA,0,,2,,,,2,,
350,15,340968,2613017,44928.92606,44928.93421,69735,会社 - 木,平日に働く日が似ている,0,平日に働くのは会社のみの特徴,0,,0,,,,0,,
351,16,354851,2613017,44928.92606,44928.93421,13866,酒場 - 教会,人が集まるところが似ている,2,NA,0,,2,,,,2,,
352,17,372171,2613017,44928.92606,44928.93421,17307,理論 - 建物,しっかりとしているところが似ている,1,しっかりしているはSHにない,0,,1,,,,1,,
353,18,381379,2613017,44928.92606,44928.93421,9193,ダイヤモンド - 雪片,小さいところが似ている,1,SHにないが部分的特徴は捉えている,0,,1,,,,1,,
354,19,485848,2613017,44928.92606,44928.93421,104452,記憶 - 牢獄,困難なところが似ている,0,どこが困難かの説明が足りない,0,,0,,,,0,,
355,20,500886,2613017,44928.92606,44928.93421,15031,鍵 - 答え,正解というところが似ている,1,NA,0,,1,,,,1,,
356,21,527858,2613017,44928.92606,44928.93421,26964,結婚 - 合金,美しいところが似ている,1,SHにないが部分的特徴は捉えている,0,,1,,,,1,,
357,22,588713,2613017,44928.92606,44928.93421,60849,思考 - 網,入り組んでいるところが似ている,1,つながっていると同じ,0,,1,,,,1,,
358,23,632206,2613017,44928.92606,44928.93421,43479,学位 - 橋,地に付いているところが似ている,1,地に足がついているは一般性を欠くが部分一致,0,,1,,,,1,,
359,24,673726,2613017,44928.92606,44928.93421,41506,美術館 - 墓,アートなところが似ている,1,芸術的な墓があるのは事実,1,1,1,1,,,1,,芸術的な墓があるのは事実
360,25,700224,2613017,44928.92606,44928.93421,26491,若者 - 鳥,これから羽ばたいていくところが似ている,2,NA,0,,2,,,,2,,
361,2,270555,1791041,44928.92587,44928.93444,16442,鳥 - 飛行機,空を飛ぶ,2,NA,0,,2,,,,2,,
362,3,276384,1791041,44928.92587,44928.93444,5822,剣 - 拳銃,人を殺す,1,NA,0,,1,,,,1,,
363,4,280700,1791041,44928.92587,44928.93444,4313,みかん - ボール,丸い,1,NA,0,,1,,,,1,,
364,5,286156,1791041,44928.92587,44928.93444,5453,太陽 - 電球,光るもの,2,NA,0,,2,,,,2,,
365,6,298163,1791041,44928.92587,44928.93444,12004,紙 - 葉っぱ,薄い,1,NA,0,,1,,,,1,,
366,7,307121,1791041,44928.92587,44928.93444,8956,山頂 - 針,尖っている,2,NA,0,,2,,,,2,,
367,8,321152,1791041,44928.92587,44928.93444,14029,道 - 川,長く続いている,1,NA,0,,1,,,,1,,
368,9,337141,1791041,44928.92587,44928.93444,15986,愛 - 薬物,人を癒やす,1,NA,0,,1,,,,1,,
369,10,354594,1791041,44928.92587,44928.93444,17451,山 - 障害物,人が乗り越えなければならないもの,2,NA,0,,2,,,,2,,
370,11,369331,1791041,44928.92587,44928.93444,14734,輪っか - ネックレス,丸く繋がっているもの,2,NA,0,,2,,,,2,,
371,12,391817,1791041,44928.92587,44928.93444,22478,孤独 - 砂漠,人が少なく、誰にも会えない,2,人がいないの同義,0,,2,,,,2,,
372,13,404764,1791041,44928.92587,44928.93444,12944,なぞなぞ - 迷宮,人の思考を惑わせる,1,混乱すると同義か; SHにない,0,,1,,,,1,,
373,14,417630,1791041,44928.92587,44928.93444,12863,時間 - 川,ゆっくりと流れる,2,NA,0,,2,,,,2,,
374,15,486301,1791041,44928.92587,44928.93444,68669,会社 - 木,長続きすること,1,続くはSHにはないが、同義か,0,,1,,,,1,,
375,16,494691,1791041,44928.92587,44928.93444,8387,酒場 - 教会,人が集まる場所,2,NA,0,,2,,,,2,,
376,17,513653,1791041,44928.92587,44928.93444,18959,理論 - 建物,土台から構築されるもの,2,強固な基盤があると同義か,0,,2,,,,2,,
377,18,530080,1791041,44928.92587,44928.93444,16424,ダイヤモンド - 雪片,ギザギザの模様,1,SHに似ている; 形が似ていると同義,0,,1,,,,1,,
378,19,548947,1791041,44928.92587,44928.93444,18864,記憶 - 牢獄,狭い範囲でしか考えられない,1,狭いは部分的特徴を捉えている,0,,1,,,,1,,
379,20,593734,1791041,44928.92587,44928.93444,44784,鍵 - 答え,物事を次に進める解決策,1,NA,1,,1,,,,1,,
380,21,624205,1791041,44928.92587,44928.93444,30468,結婚 - 合金,違うものが一緒になって、より強固になること,2,NA,0,,2,,,,2,,
381,22,656322,1791041,44928.92587,44928.93444,32114,思考 - 網,色々な物が繋がっていくこと,1,NA,0,,1,,,,1,,
382,23,674587,1791041,44928.92587,44928.93444,18262,学位 - 橋,目標に到達する方法,2,NA,0,,2,,,,2,,
383,24,715480,1791041,44928.92587,44928.93444,40890,美術館 - 墓,彫刻物があること,1,彫刻物がある場合もある,0,,1,,,,1,,
384,25,737701,1791041,44928.92587,44928.93444,22219,若者 - 鳥,羽ばたいて行くもの。,2,NA,0,,2,,,,2,,
385,2,20957,3053783,44928.92366,44928.9345,6314,鳥 - 飛行機,飛ぶ,2,NA,0,,2,,,,2,,
386,3,35541,3053783,44928.92366,44928.9345,14581,剣 - 拳銃,攻撃する,1,NA,0,,1,,,,1,,
387,4,45294,3053783,44928.92366,44928.9345,9748,みかん - ボール,丸い,1,NA,0,,1,,,,1,,
388,5,51866,3053783,44928.92366,44928.9345,6567,太陽 - 電球,明るい,1,NA,0,,1,,,,1,,
389,6,106478,3053783,44928.92366,44928.9345,54611,紙 - 葉っぱ,薄い,1,NA,0,,1,,,,1,,
390,7,137222,3053783,44928.92366,44928.9345,30741,山頂 - 針,尖っている,2,NA,0,,2,,,,2,,
391,8,186703,3053783,44928.92366,44928.9345,49479,道 - 川,辿ることができる,1,NA,0,,1,,,,1,,
392,9,196889,3053783,44928.92366,44928.9345,10182,愛 - 薬物,中毒性がある,2,NA,0,,2,,,,2,,
393,10,227695,3053783,44928.92366,44928.9345,30803,山 - 障害物,登って、乗り越えなければならない,2,NA,0,,2,,,,2,,
394,11,236767,3053783,44928.92366,44928.9345,9069,輪っか - ネックレス,通すもの,1,SHにない,1,1,1,1,,,1,,SHにない
395,12,261614,3053783,44928.92366,44928.9345,24844,孤独 - 砂漠,疎遠,1,交際が途絶えるというのは、人がいないの下位概念,0,,1,,,,1,,
396,13,266613,3053783,44928.92366,44928.9345,4995,なぞなぞ - 迷宮,摩訶不思議,1,ミステリアスだと同義か,0,,1,,,,1,,
397,14,269880,3053783,44928.92366,44928.9345,3263,時間 - 川,流れる,2,NA,0,,2,,,,2,,
398,15,282736,3053783,44928.92366,44928.9345,12852,会社 - 木,建てるもの,0,建てるは会社,0,,0,,,,0,,
399,16,312370,3053783,44928.92366,44928.9345,29630,酒場 - 教会,人が集まる場所,2,NA,0,,2,,,,2,,
400,17,341912,3053783,44928.92366,44928.9345,29541,理論 - 建物,土台がないと成り立たない,2,強固な基盤があると同義か,0,,2,,,,2,,
401,18,405752,3053783,44928.92366,44928.9345,63839,ダイヤモンド - 雪片,脆い,0,ダイヤモンドは（一般的なものは）脆くないはず,1,1,0,0,0,0,0,,ダイヤモンドは（一般的なものは）脆くないはず
402,19,541298,3053783,44928.92366,44928.9345,135550,記憶 - 牢獄,閉鎖的,1,外から入れないニュアンスは全体特徴は捉えていないが、部分的な特徴は捉えている,0,,1,,,,1,,
403,20,546352,3053783,44928.92366,44928.9345,5049,鍵 - 答え,探すもの,1,SHにないが部分的特徴は捉えている,0,,1,,,,1,,
404,21,603683,3053783,44928.92366,44928.9345,57330,結婚 - 合金,相性が大事,1,SHにはないが部分的特徴は捉えている,1,1,1,1,,,1,,SHにはないが部分的特徴は捉えている
405,22,663595,3053783,44928.92366,44928.9345,59912,思考 - 網,罠があって、なかなか抜け出せないもの,1,抜け出せないは部分的特徴がある,0,,1,,,,1,,
406,23,720587,3053783,44928.92366,44928.9345,56920,学位 - 橋,通るもの,2,NA,0,,2,,,,2,,
407,24,767415,3053783,44928.92366,44928.9345,46824,美術館 - 墓,人がいること,1,部分的特徴が一致している,0,,1,,,,1,,
408,25,859847,3053783,44928.92366,44928.9345,92426,若者 - 鳥,繊細,1,部分的に特徴が一致している,0,,1,,,,1,,
409,2,39214,5054908,44928.92906,44928.93465,18279,鳥 - 飛行機,両方とも飛ぶ,2,NA,0,,2,,,,2,,
410,3,56944,5054908,44928.92906,44928.93465,17719,剣 - 拳銃,殺傷能力がある,1,NA,0,,1,,,,1,,
411,4,62766,5054908,44928.92906,44928.93465,5806,みかん - ボール,丸い,1,NA,0,,1,,,,1,,
412,5,73654,5054908,44928.92906,44928.93465,10879,太陽 - 電球,光を放つ,2,NA,1,2,2,1,,,2,,NA
413,6,84239,5054908,44928.92906,44928.93465,10576,紙 - 葉っぱ,薄い,1,NA,0,,1,,,,1,,
414,7,112558,5054908,44928.92906,44928.93465,28310,山頂 - 針,先端が尖っている,2,NA,0,,2,,,,2,,
415,8,131838,5054908,44928.92906,44928.93465,19273,道 - 川,上（上流）と下（,0,途中で回答がおわっている,1,1,0,0,0,0,0,,途中で回答がおわっている→採点基準表も更新(v5.1)
416,9,177696,5054908,44928.92906,44928.93465,45840,愛 - 薬物,はまると抜けだせない,2,"2点とした（1→2, v3）",0,,2,,,,2,,
417,10,185401,5054908,44928.92906,44928.93465,7660,山 - 障害物,超えるべきもの,2,乗り越えるものと同義,0,,2,,,,2,,
418,11,208086,5054908,44928.92906,44928.93465,22668,輪っか - ネックレス,線が円状に連なっている,2,円形だの同義,0,,2,,,,2,,
419,12,230535,5054908,44928.92906,44928.93465,22441,孤独 - 砂漠,自分のほかに何もない,2,NA,0,,2,,,,2,,
420,13,255080,5054908,44928.92906,44928.93465,24528,なぞなぞ - 迷宮,答えを探す,2,解決できると同義か,0,,2,,,,2,,
421,14,263624,5054908,44928.92906,44928.93465,8529,時間 - 川,流れる,2,NA,0,,2,,,,2,,
422,15,286890,5054908,44928.92906,44928.93465,23257,会社 - 木,倒れることがある,1,SHにないが部分的特徴は捉えている,0,,1,,,,1,,
423,16,298141,5054908,44928.92906,44928.93465,11225,酒場 - 教会,人が集う,2,NA,0,,2,,,,2,,
424,17,314521,5054908,44928.92906,44928.93465,16361,理論 - 建物,構築されるもの,2,NA,0,,2,,,,2,,
425,18,330893,5054908,44928.92906,44928.93465,16357,ダイヤモンド - 雪片,結晶構造,2,NA,0,,2,,,,2,,
426,19,350800,5054908,44928.92906,44928.93465,19899,記憶 - 牢獄,閉じ込められる,2,NA,0,,2,,,,2,,
427,20,374654,5054908,44928.92906,44928.93465,23847,鍵 - 答え,クイズの要素,0,説明不足,0,,0,,,,0,,
428,21,386319,5054908,44928.92906,44928.93465,11648,結婚 - 合金,結びつく,2,NA,0,,2,,,,2,,
429,22,396902,5054908,44928.92906,44928.93465,10570,思考 - 網,張り巡らされる,2,NA,0,,2,,,,2,,
430,23,448564,5054908,44928.92906,44928.93465,51653,学位 - 橋,高低差がある,1,そういう橋があるのは事実,0,,1,,,,1,,
431,24,462077,5054908,44928.92906,44928.93465,13504,美術館 - 墓,静か,1,NA,0,,1,,,,1,,
432,25,478231,5054908,44928.92906,44928.93465,16147,若者 - 鳥,飛び立つ,2,NA,0,,2,,,,2,,
433,2,50875,2227987,44928.9267,44928.9347,11849,鳥 - 飛行機,空を飛ぶことができる,2,NA,0,,2,,,,2,,
434,3,62969,2227987,44928.9267,44928.9347,12091,剣 - 拳銃,武器,2,NA,0,,2,,,,2,,
435,4,69266,2227987,44928.9267,44928.9347,6294,みかん - ボール,丸い,1,NA,0,,1,,,,1,,
436,5,100312,2227987,44928.9267,44928.9347,31042,太陽 - 電球,光を放つ,2,NA,0,,2,,,,2,,
437,6,113554,2227987,44928.9267,44928.9347,13239,紙 - 葉っぱ,薄い,1,NA,0,,1,,,,1,,
438,7,122922,2227987,44928.9267,44928.9347,9366,山頂 - 針,尖っている,2,NA,0,,2,,,,2,,
439,8,130422,2227987,44928.9267,44928.9347,7498,道 - 川,細長い,1,NA,0,,1,,,,1,,
440,9,154824,2227987,44928.9267,44928.9347,24400,愛 - 薬物,依存させる,2,"2点とした（1→2, v3）",0,,2,,,,2,,
441,10,181198,2227987,44928.9267,44928.9347,26372,山 - 障害物,行く先を遮る,2,邪魔になると同義,0,,2,,,,2,,
442,11,195564,2227987,44928.9267,44928.9347,14362,輪っか - ネックレス,輪になっている,2,閉じた輪,0,,2,,,,2,,
443,12,205610,2227987,44928.9267,44928.9347,10043,孤独 - 砂漠,静寂,1,静かなのは人がいないの一部,0,,1,,,,1,,
444,13,236976,2227987,44928.9267,44928.9347,31362,なぞなぞ - 迷宮,迷わせる,1,混乱すると同義か; SHにない,1,1,1,1,,,1,,混乱すると同義か; SHにない
445,14,243140,2227987,44928.9267,44928.9347,6162,時間 - 川,流れる,2,NA,0,,2,,,,2,,
446,15,356842,2227987,44928.9267,44928.9347,113700,会社 - 木,そびえ立つ,1,SHにないが部分的特徴は捉えている,0,,1,,,,1,,
447,16,364006,2227987,44928.9267,44928.9347,7162,酒場 - 教会,人が集まる,2,NA,0,,2,,,,2,,
448,17,372544,2227987,44928.9267,44928.9347,8536,理論 - 建物,構築される,2,NA,0,,2,,,,2,,
449,18,410146,2227987,44928.9267,44928.9347,37599,ダイヤモンド - 雪片,キラキラ美しい,1,NA,0,,1,,,,1,,
450,19,429810,2227987,44928.9267,44928.9347,19661,記憶 - 牢獄,閉じ込められる,2,NA,0,,2,,,,2,,
451,20,503970,2227987,44928.9267,44928.9347,74158,鍵 - 答え,真実がわかる,1,正解にと同義か,0,,1,,,,1,,
452,21,516901,2227987,44928.9267,44928.9347,12929,結婚 - 合金,指輪,1,NA,0,,1,,,,1,,
453,22,528634,2227987,44928.9267,44928.9347,11730,思考 - 網,張り巡らす,2,NA,0,,2,,,,2,,
454,23,658190,2227987,44928.9267,44928.9347,129554,学位 - 橋,通過点,1,新規部分,0,,1,,,,1,,
455,24,677722,2227987,44928.9267,44928.9347,19530,美術館 - 墓,過去のもの,1,NA,0,,1,,,,1,,
456,25,686612,2227987,44928.9267,44928.9347,8888,若者 - 鳥,羽ばたく,2,NA,0,,2,,,,2,,
457,2,46188,4008717,44928.93017,44928.93494,17468,鳥 - 飛行機,飛べる,2,NA,0,,2,,,,2,,
458,3,68970,4008717,44928.93017,44928.93494,22780,剣 - 拳銃,攻撃できる,1,NA,0,,1,,,,1,,
459,4,81278,4008717,44928.93017,44928.93494,12305,みかん - ボール,丸い,1,NA,0,,1,,,,1,,
460,5,88737,4008717,44928.93017,44928.93494,7457,太陽 - 電球,明るい,1,NA,0,,1,,,,1,,
461,6,111740,4008717,44928.93017,44928.93494,23004,紙 - 葉っぱ,平たい,1,NA,0,,1,,,,1,,
462,7,140246,4008717,44928.93017,44928.93494,28505,山頂 - 針,先が尖っている,2,NA,0,,2,,,,2,,
463,8,149212,4008717,44928.93017,44928.93494,8964,道 - 川,長い,1,NA,0,,1,,,,1,,
464,9,156367,4008717,44928.93017,44928.93494,7152,愛 - 薬物,依存,2,"2点とした（1→2, v3）",0,,2,,,,2,,
465,10,174795,4008717,44928.93017,44928.93494,18425,山 - 障害物,歩きにくい,2,邪魔になると同義?難しい。,0,,2,,,,2,,
466,11,193301,4008717,44928.93017,44928.93494,18483,輪っか - ネックレス,円状,2,円形だの同義,0,,2,,,,2,,
467,12,218973,4008717,44928.93017,44928.93494,25670,孤独 - 砂漠,誰も居ない,2,NA,1,,2,,,,2,,
468,13,231416,4008717,44928.93017,44928.93494,12441,なぞなぞ - 迷宮,頭を使う,1,挑戦的だと同義か,0,,1,,,,1,,
469,14,238245,4008717,44928.93017,44928.93494,6826,時間 - 川,流れる,2,NA,0,,2,,,,2,,
470,15,249563,4008717,44928.93017,44928.93494,11316,会社 - 木,建物,0,会社のみ,0,,0,,,,0,,
471,16,262568,4008717,44928.93017,44928.93494,13003,酒場 - 教会,人が集まる,2,NA,0,,2,,,,2,,
472,17,278239,4008717,44928.93017,44928.93494,15669,理論 - 建物,設計されている,1,人間が設計していると同義か,0,,1,,,,1,,
473,18,285057,4008717,44928.93017,44928.93494,6815,ダイヤモンド - 雪片,綺麗,1,NA,0,,1,,,,1,,
474,19,315174,4008717,44928.93017,44928.93494,30095,記憶 - 牢獄,思い出したくない,0,記憶側の特徴のみ捉えている,0,,0,,,,0,,
475,20,324365,4008717,44928.93017,44928.93494,9176,鍵 - 答え,解ける,1,問題を解決すると同義か,0,,1,,,,1,,
476,21,335806,4008717,44928.93017,44928.93494,11439,結婚 - 合金,指輪,1,NA,0,,1,,,,1,,
477,22,348811,4008717,44928.93017,44928.93494,13003,思考 - 網,複雑,1,NA,0,,1,,,,1,,
478,23,383395,4008717,44928.93017,44928.93494,34581,学位 - 橋,繋がっている,2,NA,0,,2,,,,2,,
479,24,397817,4008717,44928.93017,44928.93494,14420,美術館 - 墓,歴史,1,NA,0,,1,,,,1,,
480,25,408763,4008717,44928.93017,44928.93494,10944,若者 - 鳥,羽ばたける,2,NA,0,,2,,,,2,,
481,2,72413,3052369,44928.92631,44928.93503,44564,鳥 - 飛行機,空を飛ぶという動作をする意味で似ている,2,NA,0,,2,,,,2,,
482,3,126699,3052369,44928.92631,44928.93503,54283,剣 - 拳銃,どちらも人や物を傷つけたり殺傷できる武器として似ている,2,NA,1,1,2,0,2,2,2,,NA
483,4,142187,3052369,44928.92631,44928.93503,15484,みかん - ボール,丸い形が似ている,1,NA,0,,1,,,,1,,
484,5,164563,3052369,44928.92631,44928.93503,22371,太陽 - 電球,周りを明るく照らすというところが似ている,2,照らすが上位概念,0,,2,,,,2,,
485,6,191715,3052369,44928.92631,44928.93503,27148,紙 - 葉っぱ,ペラペラで薄いところが似ている,1,NA,0,,1,,,,1,,
486,7,220819,3052369,44928.92631,44928.93503,29101,山頂 - 針,とがっているところが似ている,2,NA,0,,2,,,,2,,
487,8,266987,3052369,44928.92631,44928.93503,46165,道 - 川,川が流れる先に道があるので、ともにある場所が,1,どこかにつながっている　,0,,1,,,,1,,
488,9,435650,3052369,44928.92631,44928.93503,168660,愛 - 薬物,愛と薬物はどちらも依存するところ,2,"2点とした（1→2, v3）",1,2,2,1,,,2,,"2点とした（1→2, v3）"
489,10,443280,3052369,44928.92631,44928.93503,7628,山 - 障害物,けわしいところ,1,難しいと胴着か; SHにない,0,,1,,,,1,,
490,11,456562,3052369,44928.92631,44928.93503,13277,輪っか - ネックレス,形状が似ている,1,NA,1,1,1,1,,,1,,NA
491,12,479362,3052369,44928.92631,44928.93503,22796,孤独 - 砂漠,出口がないところが似ている,1,出口はないは特徴のひとつ,0,,1,,,,1,,
492,13,489386,3052369,44928.92631,44928.93503,10018,なぞなぞ - 迷宮,迷うところが似ている,1,混乱すると同義か; SHにない,0,,1,,,,1,,
493,14,512868,3052369,44928.92631,44928.93503,23478,時間 - 川,流れが早いところが似ている,2,NA,0,,2,,,,2,,
494,15,543095,3052369,44928.92631,44928.93503,30223,会社 - 木,なくてはならないところが似ている,1,一般的な回答かはわからない,0,,1,,,,1,,
495,16,564196,3052369,44928.92631,44928.93503,21096,酒場 - 教会,たのしいところが似ている,1,一般的でないが、部分,0,,1,,,,1,,
496,17,584609,3052369,44928.92631,44928.93503,20409,理論 - 建物,頭を使うところが似ている,1,アイデアから生まれると同義か,0,,1,,,,1,,
497,18,597261,3052369,44928.92631,44928.93503,12646,ダイヤモンド - 雪片,キラキラしたところが似ている,1,NA,0,,1,,,,1,,
498,19,649433,3052369,44928.92631,44928.93503,52166,記憶 - 牢獄,行き詰るところが似ている,1,閉じ込められるではないが、部分的特徴は捉えている,0,,1,,,,1,,
499,20,667736,3052369,44928.92631,44928.93503,18298,鍵 - 答え,出口があるところが似ている,1,SHにないが部分的特徴を捉えている,0,,1,,,,1,,
500,21,695803,3052369,44928.92631,44928.93503,28064,結婚 - 合金,資産ができるところが似ている,1,指輪の一機能で、部分的特徴か,0,,1,,,,1,,
501,22,710422,3052369,44928.92631,44928.93503,14614,思考 - 網,めぐらすところが似ている,2,NA,0,,2,,,,2,,
502,23,724775,3052369,44928.92631,44928.93503,14349,学位 - 橋,渡すところが似ている,2,つながるの派生,0,,2,,,,2,,
503,24,742861,3052369,44928.92631,44928.93503,18082,美術館 - 墓,静かなところが似ている,1,NA,0,,1,,,,1,,
504,25,752149,3052369,44928.92631,44928.93503,9284,若者 - 鳥,自由なところが似ている,2,NA,1,,2,,,,2,,
505,2,26652,757433,44928.92505,44928.93543,9825,鳥 - 飛行機,空を飛ぶ,2,NA,0,,2,,,,2,,
506,3,38584,757433,44928.92505,44928.93543,11930,剣 - 拳銃,武器として使える,2,NA,0,,2,,,,2,,
507,4,47560,757433,44928.92505,44928.93543,8973,みかん - ボール,丸みがある,1,NA,0,,1,,,,1,,
508,5,64573,757433,44928.92505,44928.93543,17011,太陽 - 電球,明るい,1,NA,0,,1,,,,1,,
509,6,79740,757433,44928.92505,44928.93543,15165,紙 - 葉っぱ,薄っぺらい,1,NA,0,,1,,,,1,,
510,7,112842,757433,44928.92505,44928.93543,33100,山頂 - 針,先っぽにいくほど細くなる,1,鋭さがない,0,,1,,,,1,,
511,8,172736,757433,44928.92505,44928.93543,59893,道 - 川,流れがある,1,NA,0,,1,,,,1,,
512,9,250875,757433,44928.92505,44928.93543,78137,愛 - 薬物,おぼれることがある,2,"2点とした（1→2, v3）",0,,2,,,,2,,
513,10,272723,757433,44928.92505,44928.93543,21846,山 - 障害物,高さがある,1,NA,0,,1,,,,1,,
514,11,310374,757433,44928.92505,44928.93543,37649,輪っか - ネックレス,繋がっていて円い,2,丸いの同義,0,,2,,,,2,,
515,12,371362,757433,44928.92505,44928.93543,60985,孤独 - 砂漠,頼れるものがない,2,人がいないの同義,0,,2,,,,2,,
516,13,384278,757433,44928.92505,44928.93543,12915,なぞなぞ - 迷宮,頭を使う,1,混乱すると同義か; SHにない,0,,1,,,,1,,
517,14,392535,757433,44928.92505,44928.93543,8256,時間 - 川,流れがある,2,NA,0,,2,,,,2,,
518,15,439694,757433,44928.92505,44928.93543,47157,会社 - 木,成長する,1,NA,0,,1,,,,1,,
519,16,454199,757433,44928.92505,44928.93543,14503,酒場 - 教会,人が集まる,2,NA,0,,2,,,,2,,
520,17,521894,757433,44928.92505,44928.93543,67693,理論 - 建物,立てる（建てる）のが大変,2,構築するのと同義か,0,,2,,,,1,,建てられるは1（2023/2/19）
521,18,530982,757433,44928.92505,44928.93543,9085,ダイヤモンド - 雪片,美しい,1,NA,0,,1,,,,1,,
522,19,545314,757433,44928.92505,44928.93543,14331,記憶 - 牢獄,閉じ込めることができる,2,NA,0,,2,,,,2,,
523,20,569013,757433,44928.92505,44928.93543,23697,鍵 - 答え,道が開ける,2,先へ進めると同義か,1,,2,,,,2,,
524,21,602223,757433,44928.92505,44928.93543,33207,結婚 - 合金,2つのものが一緒になる,2,NA,0,,2,,,,2,,
525,22,616098,757433,44928.92505,44928.93543,13874,思考 - 網,複雑に絡み合う,1,新規項目,0,,1,,,,1,,
526,23,702198,757433,44928.92505,44928.93543,86098,学位 - 橋,あると先へと繋がる,2,NA,0,,2,,,,2,,
527,24,788184,757433,44928.92505,44928.93543,85984,美術館 - 墓,物が収められる,2,物の状態を保存すると同義,1,2,2,1,,,2,,物の状態を保存すると同義
528,25,895056,757433,44928.92505,44928.93543,106871,若者 - 鳥,巣立っていく,2,羽ばたくや飛び立つと同義,1,,2,,,,2,,
529,2,45850,1610899,44928.92664,44928.93558,19034,鳥 - 飛行機,空を飛ぶところが似ている,2,NA,0,,2,,,,2,,
530,3,67137,1610899,44928.92664,44928.93558,21284,剣 - 拳銃,対人兵器であるところが似ている,2,兵器はカテゴリだと思う,0,,2,,,,2,,
531,4,83466,1610899,44928.92664,44928.93558,16326,みかん - ボール,丸い形状が似ている,1,NA,1,1,1,1,,,1,,NA
532,5,92729,1610899,44928.92664,44928.93558,9260,太陽 - 電球,光を放つところが似ている,2,NA,0,,2,,,,2,,
533,6,109001,1610899,44928.92664,44928.93558,16270,紙 - 葉っぱ,平べったい構造であるところが似ている,1,NA,0,,1,,,,1,,
534,7,123642,1610899,44928.92664,44928.93558,14638,山頂 - 針,先端がとがっているところが似ている,2,NA,1,2,2,1,,,2,,NA
535,8,179601,1610899,44928.92664,44928.93558,55957,道 - 川,ところどころカーブがある線状のものであるところが似ている,1,カーブがある/線上があるはKHにない,0,,1,,,,1,,
536,9,196451,1610899,44928.92664,44928.93558,16847,愛 - 薬物,依存しやすいところが似ている,2,"2点とした（1→2, v3）",0,,2,,,,2,,
537,10,217841,1610899,44928.92664,44928.93558,21388,山 - 障害物,行く手を阻むところが似ている,2,邪魔になると同義,0,,2,,,,2,,
538,11,237745,1610899,44928.92664,44928.93558,19900,輪っか - ネックレス,円状のものであるところが似ている,2,NA,0,,2,,,,2,,
539,12,298913,1610899,44928.92664,44928.93558,61165,孤独 - 砂漠,二つの漢字の言葉であり、平仮名読みで３文字なところが似ている,0,内容に関連のない類似性,0,,0,,,,0,,
540,13,317248,1610899,44928.92664,44928.93558,18334,なぞなぞ - 迷宮,対象を迷わせるところが似ている,1,混乱すると同義か; SHにない,0,,1,,,,1,,
541,14,335857,1610899,44928.92664,44928.93558,18607,時間 - 川,流れると表記されるところが似ている,2,NA,0,,2,,,,2,,
542,15,359481,1610899,44928.92664,44928.93558,23622,会社 - 木,ピラミッド型の組織や形状であるところが似ている。,2,階層的とピラミッド型が同義,1,2,2,1,,,2,,階層的とピラミッド型が同義
543,16,372145,1610899,44928.92664,44928.93558,12661,酒場 - 教会,人が集う場所であるところが似ている,2,NA,1,2,2,1,,,2,,NA
544,17,390993,1610899,44928.92664,44928.93558,18845,理論 - 建物,一つ一つのものを構築していくところが似ている。,2,NA,0,,2,,,,2,,
545,18,403448,1610899,44928.92664,44928.93558,12452,ダイヤモンド - 雪片,キラキラ輝くところが似ている,1,NA,0,,1,,,,1,,
546,19,487865,1610899,44928.92664,44928.93558,84414,記憶 - 牢獄,記憶は思い出を、牢獄は人を、それぞれ収めるところが似ている,1,保存すると同義; SHにない,1,1,1,1,,,1,,保存すると同義; SHにない
547,20,619992,1610899,44928.92664,44928.93558,132125,鍵 - 答え,鍵は扉を開け、答えは問題を解放するところが似ている。,0,"AはB, CはD",0,,0,,,,0,,
548,21,647096,1610899,44928.92664,44928.93558,27101,結婚 - 合金,二つの物が結びつくところが似ている。,2,2つの要素を一緒にする,0,,2,,,,2,,
549,22,659528,1610899,44928.92664,44928.93558,12430,思考 - 網,複雑に絡み合ったところが似ている,1,NA,0,,1,,,,1,,
550,23,714408,1610899,44928.92664,44928.93558,54878,学位 - 橋,橋は両岸を結び付け、学位は人と社会を結びつけるところが似ている,1,結びつけるは部分,0,,1,,,,1,,
551,24,760487,1610899,44928.92664,44928.93558,46077,美術館 - 墓,ある形状のものを展示しておくところが似ている。,1,もの/記憶の展示,0,,1,,,,1,,
552,25,770080,1610899,44928.92664,44928.93558,9590,若者 - 鳥,自由に飛び回るところが似ている。,2,NA,0,,2,,,,2,,
553,2,38099,shisyou.lab,44928.92634,44928.93576,23301,鳥 - 飛行機,飛んでいるもの,2,NA,0,,2,,,,2,,
554,3,79371,shisyou.lab,44928.92634,44928.93576,41269,剣 - 拳銃,共に手に持って使う武器である点で似ている,2,NA,0,,2,,,,2,,
555,4,111699,shisyou.lab,44928.92634,44928.93576,32326,みかん - ボール,共に球状の物体であるという点で似ている,2,NA,1,2,2,1,,,2,,NA
556,5,160691,shisyou.lab,44928.92634,44928.93576,48988,太陽 - 電球,共に丸くエネルギーで光を放つ点で似ている,2,NA,0,,2,,,,2,,
557,6,190481,shisyou.lab,44928.92634,44928.93576,29789,紙 - 葉っぱ,共に薄っぺらいという点で似ている,1,NA,0,,1,,,,1,,
558,7,254490,shisyou.lab,44928.92634,44928.93576,64006,山頂 - 針,共に先端が尖った形であるという点で似ている,2,NA,1,2,2,1,,,2,,NA
559,8,291514,shisyou.lab,44928.92634,44928.93576,37022,道 - 川,共に交通路足りえるという点で似ている,2,NA,0,,2,,,,2,,
560,9,325482,shisyou.lab,44928.92634,44928.93576,33965,愛 - 薬物,共に快楽を得られる可能性があるという点で似ている,1,NA,0,,1,,,,1,,
561,10,360682,shisyou.lab,44928.92634,44928.93576,35198,山 - 障害物,共に人が進むのに邪魔になるという点で似ている,2,NA,0,,2,,,,2,,
562,11,433697,shisyou.lab,44928.92634,44928.93576,73012,輪っか - ネックレス,共に一つなぎのリング状のものであるという点で似ている,2,NA,0,,2,,,,2,,
563,12,468689,shisyou.lab,44928.92634,44928.93576,34989,孤独 - 砂漠,共に周囲に誰もいないという点で似ている,2,NA,0,,2,,,,2,,
564,13,516521,shisyou.lab,44928.92634,44928.93576,47829,なぞなぞ - 迷宮,共に正解が何であるか迷うという点で似ている,1,混乱すると同義か; SHにない,0,,1,,,,1,,
565,14,528705,shisyou.lab,44928.92634,44928.93576,12182,時間 - 川,共に流れがあるという点で似ている,2,NA,0,,2,,,,2,,
566,15,542817,shisyou.lab,44928.92634,44928.93576,14110,会社 - 木,共に成長するものであるという点で似ている,1,NA,0,,1,,,,1,,
567,16,556257,shisyou.lab,44928.92634,44928.93576,13438,酒場 - 教会,共に多くの人が集まるという点で似ている,2,NA,0,,2,,,,2,,
568,17,572057,shisyou.lab,44928.92634,44928.93576,15798,理論 - 建物,共に構築するものあるという点で似ている,2,NA,0,,2,,,,2,,
569,18,587921,shisyou.lab,44928.92634,44928.93576,15861,ダイヤモンド - 雪片,共に光り輝くという点で似ている,1,NA,0,,1,,,,1,,
570,19,609200,shisyou.lab,44928.92634,44928.93576,21277,記憶 - 牢獄,共にとらわれることがあるという点で似ている,2,NA,0,,2,,,,2,,
571,20,641472,shisyou.lab,44928.92634,44928.93576,32270,鍵 - 答え,共に扉を開くものという点で似ている,1,NA,0,,1,,,,1,,
572,21,677808,shisyou.lab,44928.92634,44928.93576,36333,結婚 - 合金,共に交わって一つのものになるという点で似ている,2,2つの要素を一緒にする,0,,2,,,,2,,
573,22,702920,shisyou.lab,44928.92634,44928.93576,25109,思考 - 網,共にからめとられるものであるという点で似ている,1,からめとるも新規,0,,1,,,,1,,
574,23,765176,shisyou.lab,44928.92634,44928.93576,62253,学位 - 橋,共に次の場所にわたるのに必要という点で似ている,2,NA,0,,2,,,,2,,
575,24,792600,shisyou.lab,44928.92634,44928.93576,27421,美術館 - 墓,共に遺物を収めている場所という点で似ている,2,物の状態を保存すると同義,0,,2,,,,2,,
576,25,808048,shisyou.lab,44928.92634,44928.93576,15446,若者 - 鳥,共に羽ばたくものであるという点で似ている,2,NA,0,,2,,,,2,,
577,2,38614,3693076,44928.92803,44928.93693,9316,鳥 - 飛行機,空を飛ぶ,2,NA,0,,2,,,,2,,
578,3,51702,3693076,44928.92803,44928.93693,13082,剣 - 拳銃,武器,2,NA,0,,2,,,,2,,
579,4,61943,3693076,44928.92803,44928.93693,10236,みかん - ボール,丸い形をしている,1,NA,0,,1,,,,1,,
580,5,78942,3693076,44928.92803,44928.93693,16993,太陽 - 電球,明かりになる,1,NA,1,1,1,1,,,1,,NA
581,6,126964,3693076,44928.92803,44928.93693,48017,紙 - 葉っぱ,薄い,1,NA,0,,1,,,,1,,
582,7,133127,3693076,44928.92803,44928.93693,6158,山頂 - 針,尖っている,2,NA,0,,2,,,,2,,
583,8,151773,3693076,44928.92803,44928.93693,18642,道 - 川,果てしなく長い,1,長いが主,0,,1,,,,1,,
584,9,205198,3693076,44928.92803,44928.93693,53420,愛 - 薬物,精神,0,NA,0,,0,,,,0,,
585,10,239109,3693076,44928.92803,44928.93693,33906,山 - 障害物,超えなければならい問題,2,NA,0,,2,,,,2,,
586,11,322991,3693076,44928.92803,44928.93693,83876,輪っか - ネックレス,何かにつけることができる,1,NA,0,,1,,,,1,,
587,12,390138,3693076,44928.92803,44928.93693,67142,孤独 - 砂漠,1人だと寂しい気持ちになる,1,NA,0,,1,,,,1,,
588,13,420728,3693076,44928.92803,44928.93693,30585,なぞなぞ - 迷宮,インディージョーンズを思い出す,0,個人の経験に基づく回答,1,1,0,0,0,0,0,,個人の経験に基づく回答
589,14,428941,3693076,44928.92803,44928.93693,8209,時間 - 川,流れている,2,NA,0,,2,,,,2,,
590,15,467130,3693076,44928.92803,44928.93693,38184,会社 - 木,成長,1,NA,0,,1,,,,1,,
591,16,497512,3693076,44928.92803,44928.93693,30377,酒場 - 教会,西洋のイメージ,0,共通点が具体的には述べられていない,0,,0,,,,0,,
592,17,511990,3693076,44928.92803,44928.93693,14473,理論 - 建物,建築基準法,0,具体的な説明がない,0,,0,,,,0,,
593,18,521855,3693076,44928.92803,44928.93693,9858,ダイヤモンド - 雪片,綺麗,1,NA,0,,1,,,,1,,
594,19,530206,3693076,44928.92803,44928.93693,8345,記憶 - 牢獄,囚われている,2,NA,0,,2,,,,2,,
595,20,560370,3693076,44928.92803,44928.93693,30158,鍵 - 答え,謎,0,説明不足,0,,0,,,,0,,
596,21,577936,3693076,44928.92803,44928.93693,17560,結婚 - 合金,指輪,1,NA,0,,1,,,,1,,
597,22,584015,3693076,44928.92803,44928.93693,6075,思考 - 網,脳細胞,0,あみは脳細胞じゃない,0,,0,,,,0,,
598,23,633211,3693076,44928.92803,44928.93693,49189,学位 - 橋,常にハラハラ落ち着かない,1,落ち着かないは部分一致,0,,1,,,,1,,
599,24,753519,3693076,44928.92803,44928.93693,120302,美術館 - 墓,隠し部屋,0,一般性がない,0,,0,,,,0,,
600,25,768039,3693076,44928.92803,44928.93693,14516,若者 - 鳥,羽ばたいて挑戦する,2,NA,0,,2,,,,2,,
601,2,34130,1896607,44928.93088,44928.93648,22278,鳥 - 飛行機,空を飛ぶことができる,2,NA,0,,2,,,,2,,
602,3,66514,1896607,44928.93088,44928.93648,32370,剣 - 拳銃,戦う相手を傷つける道具,1,NA,0,,1,,,,1,,
603,4,71601,1896607,44928.93088,44928.93648,5076,みかん - ボール,丸い,1,NA,0,,1,,,,1,,
604,5,82040,1896607,44928.93088,44928.93648,10427,太陽 - 電球,光を放つ,2,NA,0,,2,,,,2,,
605,6,96566,1896607,44928.93088,44928.93648,14512,紙 - 葉っぱ,平で薄っぺらい,1,NA,0,,1,,,,1,,
606,7,110983,1896607,44928.93088,44928.93648,14407,山頂 - 針,尖っている,2,NA,0,,2,,,,2,,
607,8,119386,1896607,44928.93088,44928.93648,8390,道 - 川,長い,1,NA,0,,1,,,,1,,
608,9,128442,1896607,44928.93088,44928.93648,9044,愛 - 薬物,依存性がある,2,"2点とした（1→2, v3）",0,,2,,,,2,,
609,10,144530,1896607,44928.93088,44928.93648,16078,山 - 障害物,視界を塞ぐ,1,乗り越える対象とはことなる; SH,0,,1,,,,1,,
610,11,165960,1896607,44928.93088,44928.93648,21416,輪っか - ネックレス,広げると細くて丸い,2,丸いが上位概念,0,,2,,,,2,,
611,12,193016,1896607,44928.93088,44928.93648,27042,孤独 - 砂漠,潤いが欠乏している,0,砂漠だけの特徴,1,,0,,,,0,,
612,13,208128,1896607,44928.93088,44928.93648,15100,なぞなぞ - 迷宮,解読するのが必要,1,"挑戦的, 複雑だと同義か",0,,1,,,,1,,
613,14,218040,1896607,44928.93088,44928.93648,9902,時間 - 川,流れている,2,NA,0,,2,,,,2,,
614,15,247056,1896607,44928.93088,44928.93648,29004,会社 - 木,関係性が枝状になっている,2,NA,0,,2,,,,2,,
615,16,254952,1896607,44928.93088,44928.93648,7885,酒場 - 教会,人が集まる,2,NA,0,,2,,,,2,,
616,17,274871,1896607,44928.93088,44928.93648,19909,理論 - 建物,構築することが必要,2,NA,0,,2,,,,2,,
617,18,283255,1896607,44928.93088,44928.93648,8369,ダイヤモンド - 雪片,キラキラ光っている,1,NA,0,,1,,,,1,,
618,19,301640,1896607,44928.93088,44928.93648,18370,記憶 - 牢獄,囚われると抜け出すのに苦労する,2,NA,0,,2,,,,2,,
619,20,350528,1896607,44928.93088,44928.93648,48875,鍵 - 答え,開く事ができ前に進める,2,次へ進めると同義,0,,2,,,,2,,
620,21,379775,1896607,44928.93088,44928.93648,29234,結婚 - 合金,固い繋がりがある,2,つながるは結合するか,0,,2,,,,2,,
621,22,393207,1896607,44928.93088,44928.93648,13420,思考 - 網,広げることができる,1,新規項目,0,,1,,,,1,,
622,23,438159,1896607,44928.93088,44928.93648,44940,学位 - 橋,あると通れる,2,NA,0,,2,,,,2,,
623,24,456566,1896607,44928.93088,44928.93648,18396,美術館 - 墓,過去のものを収めている,2,物の状態を保存すると同義,0,,2,,,,2,,
624,25,481543,1896607,44928.93088,44928.93648,24967,若者 - 鳥,自由に行動する,1,要相談; 2か1→1,0,,1,,,,1,,
625,2,30872,3059717,44928.93084,44928.93669,11651,鳥 - 飛行機,飛ぶ,2,NA,0,,2,,,,2,,
626,3,38083,3059717,44928.93084,44928.93669,7199,剣 - 拳銃,武器である,2,NA,0,,2,,,,2,,
627,4,42029,3059717,44928.93084,44928.93669,3938,みかん - ボール,丸い,1,NA,0,,1,,,,1,,
628,5,47217,3059717,44928.93084,44928.93669,5181,太陽 - 電球,光る,2,NA,0,,2,,,,2,,
629,6,51667,3059717,44928.93084,44928.93669,4443,紙 - 葉っぱ,薄い,1,NA,0,,1,,,,1,,
630,7,58320,3059717,44928.93084,44928.93669,6648,山頂 - 針,尖っている,2,NA,0,,2,,,,2,,
631,8,63980,3059717,44928.93084,44928.93669,5653,道 - 川,細長い,1,NA,0,,1,,,,1,,
632,9,82039,3059717,44928.93084,44928.93669,18050,愛 - 薬物,心が関係する,1,NA,0,,1,,,,1,,
633,10,87749,3059717,44928.93084,44928.93669,5705,山 - 障害物,高い,1,NA,0,,1,,,,1,,
634,11,105248,3059717,44928.93084,44928.93669,17490,輪っか - ネックレス,丸くて間があいている,2,NA,1,1,2,0,2,2,2,,NA
635,12,120438,3059717,44928.93084,44928.93669,15182,孤独 - 砂漠,何もない,2,NA,0,,2,,,,2,,
636,13,130819,3059717,44928.93084,44928.93669,10374,なぞなぞ - 迷宮,答えがみつかりにくい,2,解決できると同義か,1,2,2,1,,,2,,解決できると同義か
637,14,137481,3059717,44928.93084,44928.93669,6657,時間 - 川,流れるものである,2,NA,0,,2,,,,2,,
638,15,168209,3059717,44928.93084,44928.93669,30722,会社 - 木,その場所に固定されている,1,NA,0,,1,,,,1,,
639,16,184361,3059717,44928.93084,44928.93669,16144,酒場 - 教会,人のストレスを解消できる場所である,1,安らぎを提供できるものの同義か,0,,1,,,,1,,
640,17,218142,3059717,44928.93084,44928.93669,33775,理論 - 建物,規則に従って成り立っている,1,小さな部品を積み重ねてできる都同義,0,,1,,,,1,,
641,18,225231,3059717,44928.93084,44928.93669,7080,ダイヤモンド - 雪片,キラキラしている,1,NA,0,,1,,,,1,,
642,19,241811,3059717,44928.93084,44928.93669,16569,記憶 - 牢獄,閉じ込められている,2,NA,0,,2,,,,2,,
643,20,277550,3059717,44928.93084,44928.93669,35732,鍵 - 答え,合わせるものである,1,SHにないが部分的特徴は捉えている,0,,1,,,,1,,
644,21,295614,3059717,44928.93084,44928.93669,18056,結婚 - 合金,合わせてよりよくなる,2,NA,0,,2,,,,2,,
645,22,311431,3059717,44928.93084,44928.93669,15809,思考 - 網,複雑にからみあっている,1,NA,0,,1,,,,1,,
646,23,397526,3059717,44928.93084,44928.93669,86088,学位 - 橋,一歩一歩確実に進まなければならない,1,新規項目,0,,1,,,,1,,
647,24,486026,3059717,44928.93084,44928.93669,88493,美術館 - 墓,厳かな雰囲気がある,1,部分的特徴が一致している,0,,1,,,,1,,
648,25,502937,3059717,44928.93084,44928.93669,16906,若者 - 鳥,自由な感じ,1,要相談; 2か1→1,0,,1,,,,1,,
649,2,32725,2258721,44928.93108,44928.93686,10936,鳥 - 飛行機,空を飛ぶ,2,NA,0,,2,,,,2,,
650,3,58517,2258721,44928.93108,44928.93686,25766,剣 - 拳銃,武器になる,2,NA,1,2,2,1,,,2,,NA
651,4,66960,2258721,44928.93108,44928.93686,8439,みかん - ボール,丸い,1,NA,0,,1,,,,1,,
652,5,78304,2258721,44928.93108,44928.93686,11342,太陽 - 電球,眩しい光,1,眩しいは低次の共通点,0,,1,,,,1,,
653,6,89194,2258721,44928.93108,44928.93686,10886,紙 - 葉っぱ,ぺらぺらしている,1,ぺらぺらしている=うすい,0,,1,,,,1,,
654,7,100950,2258721,44928.93108,44928.93686,11754,山頂 - 針,先端がとがっている,2,NA,0,,2,,,,2,,
655,8,125199,2258721,44928.93108,44928.93686,24247,道 - 川,くねくねしている・自然に出来た,1,くねくねしている/自然にできたはKHにない,0,,1,,,,1,,
656,9,139491,2258721,44928.93108,44928.93686,14289,愛 - 薬物,依存性がある,2,"2点とした（1→2, v3）",0,,2,,,,2,,
657,10,173123,2258721,44928.93108,44928.93686,33629,山 - 障害物,邪魔になる時がある,2,NA,0,,2,,,,2,,
658,11,188095,2258721,44928.93108,44928.93686,14968,輪っか - ネックレス,丸いひも状,2,NA,0,,2,,,,2,,
659,12,204832,2258721,44928.93108,44928.93686,16734,孤独 - 砂漠,周りに人がいない,2,NA,1,,2,,,,2,,
660,13,225485,2258721,44928.93108,44928.93686,20650,なぞなぞ - 迷宮,一筋縄ではいかない,1,挑戦的だと同義か,0,,1,,,,1,,
661,14,252220,2258721,44928.93108,44928.93686,26733,時間 - 川,動いている（進んでいる）,2,動き続けると同義か,0,,2,,,,2,,
662,15,270789,2258721,44928.93108,44928.93686,18568,会社 - 木,人が育てる,1,一般的な回答かはわからない,0,,1,,,,1,,
663,16,281870,2258721,44928.93108,44928.93686,11078,酒場 - 教会,人が癒される場所,1,安らぎを提供できるものの同義か,0,,1,,,,1,,
664,17,307899,2258721,44928.93108,44928.93686,26026,理論 - 建物,順序良く積み上げていく,1,積み重ねることができると同義,0,,1,,,,1,,
665,18,321636,2258721,44928.93108,44928.93686,13733,ダイヤモンド - 雪片,キラキラしている,1,NA,0,,1,,,,1,,
666,19,348201,2258721,44928.93108,44928.93686,26548,記憶 - 牢獄,囚われてしまう,2,NA,0,,2,,,,2,,
667,20,369684,2258721,44928.93108,44928.93686,21481,鍵 - 答え,開けたらホッとする,1,開くと同義か,0,,1,,,,1,,
668,21,408731,2258721,44928.93108,44928.93686,39044,結婚 - 合金,違う者同士が一緒になる,2,NA,0,,2,,,,2,,
669,22,429637,2258721,44928.93108,44928.93686,20903,思考 - 網,時に囚われる,1,囚われるは新規項目,0,,1,,,,1,,
670,23,448485,2258721,44928.93108,44928.93686,18845,学位 - 橋,落ちないように渡る,2,NA,0,,2,,,,2,,
671,24,486658,2258721,44928.93108,44928.93686,38171,美術館 - 墓,その人の『顔』になる,1,部分的特徴が一致している,0,,1,,,,1,,
672,25,498323,2258721,44928.93108,44928.93686,11663,若者 - 鳥,羽ばたける,2,NA,0,,2,,,,2,,
673,2,72787,2259197,44928.92535,44928.93689,49528,鳥 - 飛行機,羽がある,1,NA,1,1,1,1,,,1,,NA
674,3,92714,2259197,44928.92535,44928.93689,19832,剣 - 拳銃,武器,2,NA,0,,2,,,,2,,
675,4,98538,2259197,44928.92535,44928.93689,5817,みかん - ボール,丸い,1,NA,0,,1,,,,1,,
676,5,106306,2259197,44928.92535,44928.93689,7737,太陽 - 電球,明るい,1,NA,0,,1,,,,1,,
677,6,112825,2259197,44928.92535,44928.93689,6516,紙 - 葉っぱ,薄い,1,NA,0,,1,,,,1,,
678,7,128858,2259197,44928.92535,44928.93689,16025,山頂 - 針,尖っている,2,NA,0,,2,,,,2,,
679,8,149650,2259197,44928.92535,44928.93689,20788,道 - 川,長い,1,NA,0,,1,,,,1,,
680,9,177745,2259197,44928.92535,44928.93689,28092,愛 - 薬物,はまりやすい,2,"2点とした（1→2, v3）",0,,2,,,,2,,
681,10,197969,2259197,44928.92535,44928.93689,20221,山 - 障害物,壁のよう,1,進歩の壁でない,0,,1,,,,1,,
682,11,205009,2259197,44928.92535,44928.93689,7037,輪っか - ネックレス,丸い,2,NA,0,,2,,,,2,,
683,12,221841,2259197,44928.92535,44928.93689,16816,孤独 - 砂漠,寂しい,1,NA,0,,1,,,,1,,
684,13,236889,2259197,44928.92535,44928.93689,15045,なぞなぞ - 迷宮,難しい,1,挑戦的だと同義か,0,,1,,,,1,,
685,14,253505,2259197,44928.92535,44928.93689,16613,時間 - 川,緩やか,1,必ずしも穏やかではない; SHにない,0,,1,,,,1,,
686,15,301712,2259197,44928.92535,44928.93689,48203,会社 - 木,成長する,1,NA,0,,1,,,,1,,
687,16,404671,2259197,44928.92535,44928.93689,102952,酒場 - 教会,人が集まる,2,NA,0,,2,,,,2,,
688,17,464319,2259197,44928.92535,44928.93689,59645,理論 - 建物,構造,2,組織的な構造と同義か,0,,2,,,,2,,
689,18,515879,2259197,44928.92535,44928.93689,51557,ダイヤモンド - 雪片,繊細で美しい,1,NA,0,,1,,,,1,,
690,19,575758,2259197,44928.92535,44928.93689,59864,記憶 - 牢獄,忌まわしい,1,部分的特徴,0,,1,,,,1,,
691,20,587087,2259197,44928.92535,44928.93689,11326,鍵 - 答え,解除,0,解錠では,0,,0,,,,0,,
692,21,651158,2259197,44928.92535,44928.93689,64068,結婚 - 合金,一つになる,2,2つの要素を一緒にする,0,,2,,,,2,,
693,22,690855,2259197,44928.92535,44928.93689,39678,思考 - 網,張り巡らす,2,NA,0,,2,,,,2,,
694,23,906797,2259197,44928.92535,44928.93689,215937,学位 - 橋,わからない,0,橋はわからないか,0,,0,,,,0,,
695,24,976845,2259197,44928.92535,44928.93689,70044,美術館 - 墓,静か,1,NA,0,,1,,,,1,,
696,25,995358,2259197,44928.92535,44928.93689,18510,若者 - 鳥,勢いがある,1,NA,0,,1,,,,1,,
697,2,31952,1589402,44928.93321,44928.93696,9527,鳥 - 飛行機,飛べる,2,NA,0,,2,,,,2,,
698,3,38208,1589402,44928.93321,44928.93696,6205,剣 - 拳銃,打つ,0,剣は打たない,0,,0,,,,0,,
699,4,42340,1589402,44928.93321,44928.93696,4121,みかん - ボール,丸い,1,NA,0,,1,,,,1,,
700,5,47957,1589402,44928.93321,44928.93696,5602,太陽 - 電球,明るい,1,NA,0,,1,,,,1,,
701,6,54262,1589402,44928.93321,44928.93696,6293,紙 - 葉っぱ,薄い,1,NA,0,,1,,,,1,,
702,7,61219,1589402,44928.93321,44928.93696,6943,山頂 - 針,先がとがっている,2,NA,0,,2,,,,2,,
703,8,70525,1589402,44928.93321,44928.93696,9281,道 - 川,長い,1,NA,0,,1,,,,1,,
704,9,80774,1589402,44928.93321,44928.93696,10235,愛 - 薬物,見えないもの,1,NA,0,,1,,,,0,,薬物は目に見える（2023/2/19）
705,10,86760,1589402,44928.93321,44928.93696,5971,山 - 障害物,でこぼこ,1,SHにない,1,1,1,1,,,1,,SHにない
706,11,102622,1589402,44928.93321,44928.93696,15849,輪っか - ネックレス,細長い,1,SHにない,0,,1,,,,1,,
707,12,108004,1589402,44928.93321,44928.93696,5364,孤独 - 砂漠,寂しい,1,NA,0,,1,,,,1,,
708,13,119749,1589402,44928.93321,44928.93696,11734,なぞなぞ - 迷宮,考える,1,部分的には正しいので; SHにはない,0,,1,,,,1,,
709,14,158708,1589402,44928.93321,44928.93696,38935,時間 - 川,神秘的,1,必ずしも神秘的ではない; SHにない,0,,1,,,,1,,
710,15,171437,1589402,44928.93321,44928.93696,12705,会社 - 木,土台になるもの,1,NA,1,1,1,1,,,1,,NA
711,16,177310,1589402,44928.93321,44928.93696,5859,酒場 - 教会,場所,0,あまりにも一般的な共通点,0,,0,,,,0,,
712,17,188094,1589402,44928.93321,44928.93696,10752,理論 - 建物,必要なもの,1,具体的な説明がない,0,,1,,,,1,,
713,18,199750,1589402,44928.93321,44928.93696,11643,ダイヤモンド - 雪片,美しい,1,NA,0,,1,,,,1,,
714,19,216188,1589402,44928.93321,44928.93696,16418,記憶 - 牢獄,考える,0,具体的な説明がない,0,,0,,,,0,,
715,20,233394,1589402,44928.93321,44928.93696,17189,鍵 - 答え,必要なもの,1,SHにないが部分的特徴を捉えている,0,,1,,,,1,,
716,21,256115,1589402,44928.93321,44928.93696,22705,結婚 - 合金,できればいいもの,1,一般性は欠くが部分的な特徴を共有している,0,,1,,,,1,,
717,22,263135,1589402,44928.93321,44928.93696,7002,思考 - 網,複雑,1,NA,0,,1,,,,1,,
718,23,284167,1589402,44928.93321,44928.93696,21005,学位 - 橋,しっかりとしたもの,1,部分的な特徴は一致している,0,,1,,,,1,,
719,24,303537,1589402,44928.93321,44928.93696,19357,美術館 - 墓,小さいものも大きいものもある,1,部分的特徴が一致している,0,,1,,,,1,,
720,25,311063,1589402,44928.93321,44928.93696,7509,若者 - 鳥,自由,1,NA,0,,1,,,,1,,
721,2,64641,5138531,44928.93086,44928.93771,47341,鳥 - 飛行機,空を飛ぶ,2,NA,0,,2,,,,2,,
722,3,76409,5138531,44928.93086,44928.93771,11759,剣 - 拳銃,攻撃するときに使う,1,NA,0,,1,,,,1,,
723,4,94994,5138531,44928.93086,44928.93771,18578,みかん - ボール,丸い形をしている,1,NA,0,,1,,,,1,,
724,5,104212,5138531,44928.93086,44928.93771,9214,太陽 - 電球,光を放っている,2,NA,0,,2,,,,2,,
725,6,113499,5138531,44928.93086,44928.93771,9282,紙 - 葉っぱ,薄っぺらい,1,NA,0,,1,,,,1,,
726,7,125365,5138531,44928.93086,44928.93771,11861,山頂 - 針,先が尖って見える,2,NA,0,,2,,,,2,,
727,8,149389,5138531,44928.93086,44928.93771,24020,道 - 川,あるところまで長く続いている,1,NA,0,,1,,,,1,,
728,9,176459,5138531,44928.93086,44928.93771,27065,愛 - 薬物,なかなか離れることが出来ない,2,"2点とした（1→2, v3）",0,,2,,,,2,,
729,10,195903,5138531,44928.93086,44928.93771,19439,山 - 障害物,その先に行くときに、越えていかなければならない,2,NA,0,,2,,,,2,,
730,11,211493,5138531,44928.93086,44928.93771,15586,輪っか - ネックレス,形が円である。,2,NA,0,,2,,,,2,,
731,12,235188,5138531,44928.93086,44928.93771,23684,孤独 - 砂漠,静かで寂しい印象がある,1,NA,0,,1,,,,1,,
732,13,253063,5138531,44928.93086,44928.93771,17872,なぞなぞ - 迷宮,解かなければ先に進むことが出来ない,2,解決できると同義か; SHにはない,0,,2,,,,2,,
733,14,266629,5138531,44928.93086,44928.93771,13563,時間 - 川,流れがある,2,NA,0,,2,,,,2,,
734,15,350406,5138531,44928.93086,44928.93771,83772,会社 - 木,会社は建造物として、木は植物としてそびえ立っている,1,NA,0,,1,,,,1,,
735,16,363345,5138531,44928.93086,44928.93771,12934,酒場 - 教会,人が集まる場である,2,NA,1,2,2,1,,,2,,NA
736,17,386409,5138531,44928.93086,44928.93771,23060,理論 - 建物,とても細かく設計されている,1,設計していると同義,1,2,1,0,1,1,1,,設計していると同義
737,18,402014,5138531,44928.93086,44928.93771,15597,ダイヤモンド - 雪片,光り輝いている,1,NA,1,1,1,1,,,1,,NA
738,19,463817,5138531,44928.93086,44928.93771,61800,記憶 - 牢獄,領域が狭く、限られている,1,狭いは部分的な特徴,0,,1,,,,1,,
739,20,485916,5138531,44928.93086,44928.93771,22096,鍵 - 答え,達成したときに手に入るものである,2,目標を達成すると同義か,0,,2,,,,2,,
740,21,508097,5138531,44928.93086,44928.93771,22177,結婚 - 合金,輝かしい物事である,1,SHにないが部分的特徴を捉えている,0,,1,,,,1,,
741,22,530312,5138531,44928.93086,44928.93771,22209,思考 - 網,1つの回路になっている,2,v2で2点に変更,0,,2,,,,2,,
742,23,549824,5138531,44928.93086,44928.93771,19509,学位 - 橋,先に進むために必要な物,2,繋ぐと同義語か,0,,2,,,,2,,
743,24,576536,5138531,44928.93086,44928.93771,26707,美術館 - 墓,大切なものや人を保管しておく場所,2,物の状態を保存すると同義,0,,2,,,,2,,
744,25,588824,5138531,44928.93086,44928.93771,12283,若者 - 鳥,元気に動き回る,1,新規項目,0,,1,,,,1,,
745,2,526428,2349425,44928.92367,44928.93801,21765,鳥 - 飛行機,飛行する,2,NA,0,,2,,,,2,,
746,3,545173,2349425,44928.92367,44928.93801,18741,剣 - 拳銃,武器,2,NA,0,,2,,,,2,,
747,4,555735,2349425,44928.92367,44928.93801,10558,みかん - ボール,球体,2,NA,0,,2,,,,2,,
748,5,565413,2349425,44928.92367,44928.93801,9674,太陽 - 電球,光源,2,NA,0,,2,,,,2,,
749,6,600904,2349425,44928.92367,44928.93801,35488,紙 - 葉っぱ,材料の元,0,すべての材料のもとではない,0,,0,,,,0,,
750,7,627751,2349425,44928.92367,44928.93801,26843,山頂 - 針,頂点がある,1,KH担い,0,,1,,,,1,,
751,8,643257,2349425,44928.92367,44928.93801,15502,道 - 川,流れがある,1,NA,0,,1,,,,1,,
752,9,677088,2349425,44928.92367,44928.93801,33828,愛 - 薬物,依存性,2,"2点とした（1→2, v3）",0,,2,,,,2,,
753,10,700805,2349425,44928.92367,44928.93801,23713,山 - 障害物,乗り越える,2,NA,0,,2,,,,2,,
754,11,726087,2349425,44928.92367,44928.93801,25278,輪っか - ネックレス,繋がっている,1,SHにない,0,,1,,,,1,,
755,12,744408,2349425,44928.92367,44928.93801,18317,孤独 - 砂漠,周りに誰もいない,2,NA,0,,2,,,,2,,
756,13,774754,2349425,44928.92367,44928.93801,30342,なぞなぞ - 迷宮,迷う,1,混乱すると同義か; SHにない,0,,1,,,,1,,
757,14,783417,2349425,44928.92367,44928.93801,8661,時間 - 川,流れる,2,NA,0,,2,,,,2,,
758,15,795770,2349425,44928.92367,44928.93801,12349,会社 - 木,成長する,1,NA,0,,1,,,,1,,
759,16,810231,2349425,44928.92367,44928.93801,14458,酒場 - 教会,人が集まる,2,NA,0,,2,,,,2,,
760,17,821017,2349425,44928.92367,44928.93801,10783,理論 - 建物,基礎がある,2,NA,1,2,2,1,,,2,,NA
761,18,834260,2349425,44928.92367,44928.93801,13239,ダイヤモンド - 雪片,光を反射する,1,輝くと同義か,0,,1,,,,1,,
762,19,861778,2349425,44928.92367,44928.93801,27515,記憶 - 牢獄,トラウマになる,1,SHにないが部分的特徴を捉えている,0,,1,,,,1,,
763,20,921140,2349425,44928.92367,44928.93801,59359,鍵 - 答え,見つからない,1,SHにないが部分的特徴を捉えている,0,,1,,,,1,,
764,21,948600,2349425,44928.92367,44928.93801,27456,結婚 - 合金,安定性が増す,1,SHにないが部分的特徴を捉えている,0,,1,,,,1,,
765,22,1007702,2349425,44928.92367,44928.93801,59098,思考 - 網,深く沈める,1,新規項目,1,1,1,1,,,1,,新規項目
766,23,1169356,2349425,44928.92367,44928.93801,161650,学位 - 橋,目的へ繋がる手段,2,NA,0,,2,,,,2,,
767,24,1186280,2349425,44928.92367,44928.93801,16920,美術館 - 墓,安置されている,2,物の状態を保存すると同義,1,2,2,1,,,2,,物の状態を保存すると同義
768,25,1236818,2349425,44928.92367,44928.93801,50535,若者 - 鳥,巣から飛び立つ,2,NA,0,,2,,,,2,,
769,2,29945,3922243,44928.92786,44928.9385,14003,鳥 - 飛行機,空を飛ぶところ,2,NA,0,,2,,,,2,,
770,3,53774,3922243,44928.92786,44928.9385,23803,剣 - 拳銃,どちらも武器である,2,NA,0,,2,,,,2,,
771,4,66751,3922243,44928.92786,44928.9385,12973,みかん - ボール,どちらも丸い,1,NA,0,,1,,,,1,,
772,5,80015,3922243,44928.92786,44928.9385,13259,太陽 - 電球,どちらも光を放っている,2,NA,0,,2,,,,2,,
773,6,88647,3922243,44928.92786,44928.9385,8627,紙 - 葉っぱ,どちらも薄っぺらいところ,1,NA,0,,1,,,,1,,
774,7,104511,3922243,44928.92786,44928.9385,15861,山頂 - 針,どちらも尖っているところ,2,NA,1,2,2,1,,,2,,NA
775,8,132223,3922243,44928.92786,44928.9385,27708,道 - 川,どちらも長く遠くまで続くところ,1,NA,0,,1,,,,1,,
776,9,176282,3922243,44928.92786,44928.9385,44056,愛 - 薬物,どちらも人を助けるものである,1,NA,0,,1,,,,1,,
777,10,197243,3922243,44928.92786,44928.9385,20957,山 - 障害物,どちらも人の前にそびえたつものである,1,高く立っているなので1,0,,1,,,,1,,
778,11,218595,3922243,44928.92786,44928.9385,21348,輪っか - ネックレス,どちらも輪の形になっている,2,NA,1,2,2,1,,,2,,NA
779,12,251087,3922243,44928.92786,44928.9385,32487,孤独 - 砂漠,どちらも周りに人がおらず寂しいところ,2,人がいないが上位概念,0,,2,,,,2,,
780,13,288986,3922243,44928.92786,44928.9385,37896,なぞなぞ - 迷宮,どちらも知恵と知識を必要とするところ,1,なんのために知識と知恵が必要なのかが厳命されていないので、1か0で悩む,1,1,1,1,,,1,,なんのために知識と知恵が必要なのかが厳命されていないので、1か0で悩む
781,14,316043,3922243,44928.92786,44928.9385,27052,時間 - 川,どちらも止まることなく流れ続けるところ,2,NA,0,,2,,,,2,,
782,15,397920,3922243,44928.92786,44928.9385,81880,会社 - 木,どちらも人を支えるものである,1,強い基盤/土台を持つと同じか？; SHにない,0,,1,,,,1,,
783,16,418848,3922243,44928.92786,44928.9385,20923,酒場 - 教会,どちらも人に癒しを与える場所である,1,NA,0,,1,,,,1,,
784,17,450809,3922243,44928.92786,44928.9385,31948,理論 - 建物,どちらも基礎からしっかりとしていなければいけない,2,NA,0,,2,,,,2,,
785,18,495034,3922243,44928.92786,44928.9385,44221,ダイヤモンド - 雪片,どちらも人を魅了するキラキラとした物体である,1,NA,0,,1,,,,1,,
786,19,558657,3922243,44928.92786,44928.9385,63619,記憶 - 牢獄,どちらも人が囚われてはいけないものである,2,NA,0,,2,,,,2,,
787,20,588977,3922243,44928.92786,44928.9385,30314,鍵 - 答え,どちらも大切なものにたどり着くきっかけである,2,SHにないが全体的特徴を捉えている,0,,2,,,,2,,
788,21,691217,3922243,44928.92786,44928.9385,102237,結婚 - 合金,どちらも結びつきが大事である,2,NA,0,,2,,,,2,,
789,22,739369,3922243,44928.92786,44928.9385,48148,思考 - 網,どちらも張り巡らせるものである,2,NA,0,,2,,,,2,,
790,23,874821,3922243,44928.92786,44928.9385,135448,学位 - 橋,どちらも人が通るものである,2,NA,0,,2,,,,2,,
791,24,898813,3922243,44928.92786,44928.9385,23988,美術館 - 墓,どちらも大切なものが収められている,2,NA,0,,2,,,,2,,
792,25,915873,3922243,44928.92786,44928.9385,17057,若者 - 鳥,どちらも自由に飛び回れる存在である,2,NA,0,,2,,,,2,,
793,2,69615,1257626,44928.59505,44928.60544,33170,鳥 - 飛行機,空を飛ぶもの,2,NA,0,,2,,,,2,,
794,3,111241,1257626,44928.59505,44928.60544,41617,剣 - 拳銃,凶器となるもの、決闘につかうもの,1,凶器は鈍器でもいけるし、人を殺すものの下位互換（一般的には正しい分類）,0,,1,,,,1,,
795,4,123760,1257626,44928.59505,44928.60544,12512,みかん - ボール,丸いもの,1,NA,0,,1,,,,1,,
796,5,145347,1257626,44928.59505,44928.60544,21567,太陽 - 電球,明るく照らすもの、暖かいもの,2,暖かいは低次（光副産物として暖かい）,0,,2,,,,2,,
797,6,169489,1257626,44928.59505,44928.60544,24135,紙 - 葉っぱ,薄っぺらいもの、風になびくもの,1,NA,0,,1,,,,1,,
798,7,193501,1257626,44928.59505,44928.60544,24007,山頂 - 針,先がとがっているもの,2,NA,0,,2,,,,2,,
799,8,236697,1257626,44928.59505,44928.60544,43189,道 - 川,細くて長いもの,1,NA,1,1,1,1,,,1,,NA
800,9,278026,1257626,44928.59505,44928.60544,41323,愛 - 薬物,中毒になる可能性のあるもの,2,NA,0,,2,,,,2,,
801,10,299915,1257626,44928.59505,44928.60544,21884,山 - 障害物,簡単には乗り越えられないもの,2,NA,0,,2,,,,2,,
802,11,373151,1257626,44928.59505,44928.60544,73228,輪っか - ネックレス,細長い物の端と端をつなげて使うもの,1,NA,0,,1,,,,1,,
803,12,429936,1257626,44928.59505,44928.60544,56778,孤独 - 砂漠,寂しい感じ,1,NA,1,,1,,,,1,,
804,13,488708,1257626,44928.59505,44928.60544,58764,なぞなぞ - 迷宮,頭を使って答えを出すもの,2,答えを出すは解決できるか; SHにない,0,,2,,,,2,,
805,14,512150,1257626,44928.59505,44928.60544,23438,時間 - 川,止める事が出来ないもの,1,NA,0,,1,,,,1,,
806,15,545633,1257626,44928.59505,44928.60544,33479,会社 - 木,どっしりと固定されているもの,1,固定されているは部分的な特徴; SHにない,0,,1,,,,1,,
807,16,558853,1257626,44928.59505,44928.60544,13213,酒場 - 教会,人が多く集まる場所,2,NA,0,,2,,,,2,,
808,17,587117,1257626,44928.59505,44928.60544,28258,理論 - 建物,１つづ積み上げていくもの,1,積み重ねることができると同義,0,,1,,,,1,,
809,18,597325,1257626,44928.59505,44928.60544,10199,ダイヤモンド - 雪片,キラキラと光るもの,1,NA,0,,1,,,,1,,
810,19,633074,1257626,44928.59505,44928.60544,35743,記憶 - 牢獄,薄暗い中にあるもの,1,薄暗いはSHにないが部分的特徴,0,,1,,,,1,,
811,20,675076,1257626,44928.59505,44928.60544,41997,鍵 - 答え,これがあれば開く事ができるもの,1,NA,0,,1,,,,1,,
812,21,718122,1257626,44928.59505,44928.60544,43038,結婚 - 合金,２つが合わさって出来る素敵なもの,2,NA,0,,2,,,,2,,
813,22,754516,1257626,44928.59505,44928.60544,36388,思考 - 網,張り巡らすもの,2,NA,0,,2,,,,2,,
814,23,792985,1257626,44928.59505,44928.60544,38464,学位 - 橋,次へ進むのに重要なもの,2,NA,0,,2,,,,2,,
815,24,857777,1257626,44928.59505,44928.60544,64785,美術館 - 墓,貴重なものが収まっている場所,2,NA,0,,2,,,,2,,
816,25,894896,1257626,44928.59505,44928.60544,37114,若者 - 鳥,これから羽ばたいていくもの,2,NA,0,,2,,,,2,,
817,2,18298,5063496,44928.92551,44928.93878,7595,鳥 - 飛行機,空を飛ぶもの,2,NA,0,,2,,,,2,,
818,3,34375,5063496,44928.92551,44928.93878,16077,剣 - 拳銃,殺傷能力のある武器,2,NA,0,,2,,,,2,,
819,4,42725,5063496,44928.92551,44928.93878,8348,みかん - ボール,丸い,1,NA,0,,1,,,,1,,
820,5,53125,5063496,44928.92551,44928.93878,10400,太陽 - 電球,光る,2,NA,0,,2,,,,2,,
821,6,66554,5063496,44928.92551,44928.93878,13427,紙 - 葉っぱ,手でちぎれる,1,ひきさける=手でちぎれる,0,,1,,,,1,,
822,7,78346,5063496,44928.92551,44928.93878,11790,山頂 - 針,とがっている,2,NA,0,,2,,,,2,,
823,8,109345,5063496,44928.92551,44928.93878,30997,道 - 川,どこまでも続く,1,NA,0,,1,,,,1,,
824,9,127257,5063496,44928.92551,44928.93878,17909,愛 - 薬物,依存する可能性のあるもの,2,"2点とした（1→2, v3）",0,,2,,,,2,,
825,10,201833,5063496,44928.92551,44928.93878,74574,山 - 障害物,越えるもの,2,NA,0,,2,,,,2,,
826,11,326998,5063496,44928.92551,44928.93878,125163,輪っか - ネックレス,形が円,2,円形の亜種,0,,2,,,,2,,
827,12,357123,5063496,44928.92551,44928.93878,30124,孤独 - 砂漠,周りに何もない,2,NA,0,,2,,,,2,,
828,13,390919,5063496,44928.92551,44928.93878,33794,なぞなぞ - 迷宮,惑わされる,1,混乱すると同義か; SHにない,0,,1,,,,1,,
829,14,413017,5063496,44928.92551,44928.93878,22096,時間 - 川,とどまらず流れていくもの,2,NA,1,2,2,1,,,2,,NA
830,15,452075,5063496,44928.92551,44928.93878,39056,会社 - 木,成長して拡大していくこと,1,NA,0,,1,,,,1,,
831,16,481427,5063496,44928.92551,44928.93878,29350,酒場 - 教会,人が本音を話しやすい場所,1,快適さと近いか; SHにない,1,1,1,1,,,1,,快適さと近いか; SHにない
832,17,522531,5063496,44928.92551,44928.93878,41104,理論 - 建物,動かすことが困難なこと,1,SHにないが部分的特徴を捉えている,0,,1,,,,1,,
833,18,545848,5063496,44928.92551,44928.93878,23315,ダイヤモンド - 雪片,光に当たると反射する,1,NA,0,,1,,,,1,,
834,19,679379,5063496,44928.92551,44928.93878,133530,記憶 - 牢獄,とらわれたら抜けだしにくいこと,2,NA,1,2,2,1,,,2,,NA
835,20,903255,5063496,44928.92551,44928.93878,223874,鍵 - 答え,形が定まっていること,1,SHにないが部分的特徴を捉えている,0,,1,,,,1,,
836,21,936283,5063496,44928.92551,44928.93878,33025,結婚 - 合金,別々のものが合わさること,2,NA,0,,2,,,,2,,
837,22,954344,5063496,44928.92551,44928.93878,18060,思考 - 網,はりめぐらすこと,2,NA,0,,2,,,,2,,
838,23,1062052,5063496,44928.92551,44928.93878,107705,学位 - 橋,築き上げたらその先へ渡ることができること,2,NA,0,,2,,,,2,,
839,24,1090115,5063496,44928.92551,44928.93878,28062,美術館 - 墓,物や人が最後に行きつくところ,1,NA,0,,1,,,,1,,
840,25,1145035,5063496,44928.92551,44928.93878,54918,若者 - 鳥,巣立って飛びだっていくところ,2,NA,0,,2,,,,2,,
841,2,48444,1916814,44928.92747,44928.93892,12879,鳥 - 飛行機,空を飛べること,2,NA,0,,2,,,,2,,
842,3,66155,1916814,44928.92747,44928.93892,17705,剣 - 拳銃,人を殺す力があること,1,NA,0,,1,,,,1,,
843,4,85439,1916814,44928.92747,44928.93892,19278,みかん - ボール,丸い形をしている所,1,NA,0,,1,,,,1,,
844,5,102047,1916814,44928.92747,44928.93892,16601,太陽 - 電球,明るい所,1,NA,0,,1,,,,1,,
845,6,134824,1916814,44928.92747,44928.93892,32771,紙 - 葉っぱ,物を包むことができる,1,NA,0,,1,,,,1,,
846,7,148728,1916814,44928.92747,44928.93892,13900,山頂 - 針,先が細い,1,鋭さがない,0,,1,,,,1,,
847,8,170252,1916814,44928.92747,44928.93892,21519,道 - 川,長い所,1,NA,0,,1,,,,1,,
848,9,213519,1916814,44928.92747,44928.93892,43262,愛 - 薬物,中毒性があることろ,2,NA,0,,2,,,,2,,
849,10,252768,1916814,44928.92747,44928.93892,39244,山 - 障害物,先がしんどいという事が分かっている所。,1,苦労するの亜種,0,,1,,,,1,,
850,11,278472,1916814,44928.92747,44928.93892,25698,輪っか - ネックレス,どちらも丸い形をしている,2,NA,0,,2,,,,2,,
851,12,322339,1916814,44928.92747,44928.93892,43862,孤独 - 砂漠,果てしなくこの先に何もなさそうな所が似ている。,2,NA,0,,2,,,,2,,
852,13,343627,1916814,44928.92747,44928.93892,21280,なぞなぞ - 迷宮,難しくて頭が混乱しそうな所。,1,NA,0,,1,,,,1,,
853,14,453260,1916814,44928.92747,44928.93892,109629,時間 - 川,時間が流れる速度や、川の流れが速い所が似ている。,1,速いか,0,,1,,,,1,,
854,15,484840,1916814,44928.92747,44928.93892,31573,会社 - 木,しっかりと建っていることが似ている,1,SHにはないが部分的特徴は捉えている,0,,1,,,,1,,
855,16,499020,1916814,44928.92747,44928.93892,14175,酒場 - 教会,にぎやかな所,1,人が集まるの下位概念か？,0,,1,,,,1,,
856,17,565244,1916814,44928.92747,44928.93892,66218,理論 - 建物,どちらもしっかりと取り組まないと完成しない所。,1,部分的には合っていると思う; SHにない,0,,1,,,,1,,
857,18,583960,1916814,44928.92747,44928.93892,18705,ダイヤモンド - 雪片,輝いていて、小さい所。,1,NA,1,1,1,1,,,1,,NA
858,19,685016,1916814,44928.92747,44928.93892,101051,記憶 - 牢獄,辛い記憶は消えないし、閉じ込められているようで苦しい所が似ている。,2,NA,0,,2,,,,2,,
859,20,745275,1916814,44928.92747,44928.93892,60255,鍵 - 答え,形が完全に一致しないと正解に導かれない所が似ている。,1,NA,0,,1,,,,1,,
860,21,770633,1916814,44928.92747,44928.93892,25349,結婚 - 合金,固いもので結ばれている所が似ている。,2,NA,0,,2,,,,2,,
861,22,845979,1916814,44928.92747,44928.93892,75340,思考 - 網,考えすぎて神経をあちこちに張り廻られている所が似ている。,2,NA,0,,2,,,,2,,
862,23,897600,1916814,44928.92747,44928.93892,51616,学位 - 橋,橋を渡るためには必死にやらねばいけないことがある所が似ている。,2,NA,0,,2,,,,2,,
863,24,958936,1916814,44928.92747,44928.93892,61331,美術館 - 墓,墓場には過去の貴重なものがあるので、美術館と似ている。,1,貴重なものがあるのは事実,0,,1,,,,1,,
864,25,987583,1916814,44928.92747,44928.93892,28642,若者 - 鳥,お互いによく喋ることが似ている。,1,部分的な一致,1,,1,,,,1,,
865,2,276212,2207845,44928.92882,44928.93905,20716,鳥 - 飛行機,どちらも空を飛ぶ,2,NA,0,,2,,,,2,,
866,3,304045,2207845,44928.92882,44928.93905,29884,剣 - 拳銃,武器,2,NA,0,,2,,,,2,,
867,4,310576,2207845,44928.92882,44928.93905,6527,みかん - ボール,球体,2,NA,0,,2,,,,2,,
868,5,317745,2207845,44928.92882,44928.93905,7162,太陽 - 電球,光源,2,NA,0,,2,,,,2,,
869,6,325468,2207845,44928.92882,44928.93905,7719,紙 - 葉っぱ,薄い,1,NA,0,,1,,,,1,,
870,7,335811,2207845,44928.92882,44928.93905,10338,山頂 - 針,先端が尖っている,2,NA,0,,2,,,,2,,
871,8,350248,2207845,44928.92882,44928.93905,14431,道 - 川,蛇行しているものもある,1,蛇行はKHにない,0,,1,,,,1,,
872,9,360184,2207845,44928.92882,44928.93905,9932,愛 - 薬物,依存しやすい,2,"2点とした（1→2, v3）",0,,2,,,,2,,
873,10,382779,2207845,44928.92882,44928.93905,22589,山 - 障害物,移動を阻害する,2,SHにない,0,,2,,,,2,,
874,11,401491,2207845,44928.92882,44928.93905,18705,輪っか - ネックレス,輪の形をしている,2,NA,0,,2,,,,2,,
875,12,413414,2207845,44928.92882,44928.93905,11917,孤独 - 砂漠,何もない、誰もない,2,NA,0,,2,,,,2,,
876,13,432964,2207845,44928.92882,44928.93905,19545,なぞなぞ - 迷宮,どちらも解くものである,2,解決できると同義か; SHにはない,0,,2,,,,2,,
877,14,441813,2207845,44928.92882,44928.93905,8845,時間 - 川,流れる,2,NA,0,,2,,,,2,,
878,15,457576,2207845,44928.92882,44928.93905,15758,会社 - 木,倒れる,1,SHにはないが部分的特徴は捉えている,0,,1,,,,1,,
879,16,493213,2207845,44928.92882,44928.93905,35631,酒場 - 教会,人が集まる,2,NA,0,,2,,,,2,,
880,17,583195,2207845,44928.92882,44928.93905,89977,理論 - 建物,理論は構築、建物は建築のように、どちらも「建てる」というイメージが有る,2,構築するものと同義か,0,,2,,,,2,,
881,18,609905,2207845,44928.92882,44928.93905,26704,ダイヤモンド - 雪片,結晶体である,2,結晶構造と同義か,1,2,2,1,,,2,,結晶構造と同義か
882,19,706346,2207845,44928.92882,44928.93905,96435,記憶 - 牢獄,記憶の檻に閉じ込められるという表現がある→檻のイメージが有る→牢獄に似ている,0,伝言ゲーム,0,,0,,,,0,,
883,20,729164,2207845,44928.92882,44928.93905,22812,鍵 - 答え,「答えを解く鍵」という比喩表現がある,1,答えを解く,0,,1,,,,1,,
884,21,754816,2207845,44928.92882,44928.93905,25644,結婚 - 合金,異なった人物（金属）が融合して出来上がる,2,NA,0,,2,,,,2,,
885,22,766869,2207845,44928.92882,44928.93905,12045,思考 - 網,思考は網に例えられる,0,同語反復,0,,0,,,,0,,
886,23,803240,2207845,44928.92882,44928.93905,36365,学位 - 橋,学位→大学→ケンブリッジ→橋,0,連想ゲームはダメ,0,,0,,,,0,,
887,24,869805,2207845,44928.92882,44928.93905,66560,美術館 - 墓,どちらも何かを”並べる”場所である（美術品と墓）,1,展示する,1,1,1,1,,,1,,展示する
888,25,881693,2207845,44928.92882,44928.93905,11884,若者 - 鳥,若者→雛鳥→鳥,0,説明になっていない,0,,0,,,,0,,
889,2,32207,95866,44928.93613,44928.93976,8755,鳥 - 飛行機,飛ぶ,2,NA,0,,2,,,,2,,
890,3,39605,95866,44928.93613,44928.93976,7359,剣 - 拳銃,武器,2,NA,0,,2,,,,2,,
891,4,44320,95866,44928.93613,44928.93976,4694,みかん - ボール,丸い,1,NA,0,,1,,,,1,,
892,5,54244,95866,44928.93613,44928.93976,9889,太陽 - 電球,熱を持つ,1,光ためのエネルギー放出で熱を持つ,0,,1,,,,1,,
893,6,60896,95866,44928.93613,44928.93976,6619,紙 - 葉っぱ,薄い,1,NA,0,,1,,,,1,,
894,7,72345,95866,44928.93613,44928.93976,11424,山頂 - 針,とがっている,2,NA,0,,2,,,,2,,
895,8,86787,95866,44928.93613,44928.93976,14413,道 - 川,長く続く,1,NA,0,,1,,,,1,,
896,9,100721,95866,44928.93613,44928.93976,13914,愛 - 薬物,危険でもある,1,NA,0,,1,,,,1,,
897,10,109404,95866,44928.93613,44928.93976,8659,山 - 障害物,乗り越える,2,NA,0,,2,,,,2,,
898,11,124793,95866,44928.93613,44928.93976,15343,輪っか - ネックレス,首にかける,1,輪っかは首にかけないのでは,0,,1,,,,1,,
899,12,142818,95866,44928.93613,44928.93976,17999,孤独 - 砂漠,寂しい,1,NA,0,,1,,,,1,,
900,13,150969,95866,44928.93613,44928.93976,8131,なぞなぞ - 迷宮,悩む,1,混乱するあたりと同じか; SHにはない,0,,1,,,,1,,
901,14,158359,95866,44928.93613,44928.93976,7361,時間 - 川,流れている,2,NA,0,,2,,,,2,,
902,15,173732,95866,44928.93613,44928.93976,15350,会社 - 木,育てる,1,一般的な回答かはわからない,0,,1,,,,1,,
903,16,182120,95866,44928.93613,44928.93976,8365,酒場 - 教会,人が集まる,2,NA,0,,2,,,,2,,
904,17,190969,95866,44928.93613,44928.93976,8815,理論 - 建物,建設的,0,具体的な説明がない,0,,0,,,,0,,
905,18,199732,95866,44928.93613,44928.93976,8740,ダイヤモンド - 雪片,眩しい,1,きらめくと同義,0,,1,,,,1,,
906,19,210033,95866,44928.93613,44928.93976,10273,記憶 - 牢獄,閉じ込める,2,NA,0,,2,,,,2,,
907,20,222676,95866,44928.93613,44928.93976,12593,鍵 - 答え,解く,1,NA,0,,1,,,,1,,
908,21,239426,95866,44928.93613,44928.93976,16696,結婚 - 合金,一緒になる,2,NA,0,,2,,,,2,,
909,22,255232,95866,44928.93613,44928.93976,15779,思考 - 網,ねじれている,1,新規項目; 部分的特徴,0,,1,,,,1,,
910,23,290430,95866,44928.93613,44928.93976,35162,学位 - 橋,高い場所,1,NA,0,,1,,,,1,,
911,24,301704,95866,44928.93613,44928.93976,11238,美術館 - 墓,静か,1,NA,0,,1,,,,1,,
912,25,310403,95866,44928.93613,44928.93976,8673,若者 - 鳥,自由,1,NA,0,,1,,,,1,,
913,2,90240,4421182,44928.92716,44928.94025,29866,鳥 - 飛行機,空を飛ぶ,2,NA,0,,2,,,,2,,
914,3,106272,4421182,44928.92716,44928.94025,16027,剣 - 拳銃,武器として使用される,2,NA,0,,2,,,,2,,
915,4,127923,4421182,44928.92716,44928.94025,21647,みかん - ボール,ほぼ同じ大きさの球体,2,抽象的な概念についての説明がある,0,,2,,,,2,,
916,5,164250,4421182,44928.92716,44928.94025,36324,太陽 - 電球,明るく照らす物体であり熱を放っている,2,NA,0,,2,,,,2,,
917,6,193580,4421182,44928.92716,44928.94025,29327,紙 - 葉っぱ,厚みがなく薄い,1,NA,0,,1,,,,1,,
918,7,235293,4421182,44928.92716,44928.94025,41711,山頂 - 針,先端が尖っている,2,NA,0,,2,,,,2,,
919,8,274569,4421182,44928.92716,44928.94025,39273,道 - 川,自然の中に存在し、果てしなく長い,1,自然の中に存在/果てしないはKHにない,0,,1,,,,1,,
920,9,306099,4421182,44928.92716,44928.94025,31525,愛 - 薬物,時として人の心を惑わす存在,1,NA,0,,1,,,,1,,
921,10,338616,4421182,44928.92716,44928.94025,32514,山 - 障害物,険しい,1,難しいの亜種,0,,1,,,,1,,
922,11,357618,4421182,44928.92716,44928.94025,18999,輪っか - ネックレス,丸い,2,NA,0,,2,,,,2,,
923,12,377960,4421182,44928.92716,44928.94025,20334,孤独 - 砂漠,乾いた状態,0,乾いたは孤独側の盗聴,0,,0,,,,0,,
924,13,471232,4421182,44928.92716,44928.94025,93269,なぞなぞ - 迷宮,人を迷わせる,1,混乱するあたりと同じか; SHにはない,0,,1,,,,1,,
925,14,510210,4421182,44928.92716,44928.94025,38974,時間 - 川,連続性があり戻ることができない,1,連続すると同義,0,,1,,,,1,,
926,15,559337,4421182,44928.92716,44928.94025,49123,会社 - 木,人々にとって大事な要素,0,どういう点で大事な要素かが書かれていない,1,1,0,0,0,0,0,,どういう点で大事な要素かが書かれていない→過度に一般化された回答は採点基準で0とするように変更(v5.1)
927,16,573065,4421182,44928.92716,44928.94025,13725,酒場 - 教会,人々が集まる場所,2,NA,0,,2,,,,2,,
928,17,613476,4421182,44928.92716,44928.94025,40406,理論 - 建物,計算で成り立っている,1,アイデアから生まれるとかと同義,1,1,1,1,,,1,,アイデアから生まれるとかと同義
929,18,641096,4421182,44928.92716,44928.94025,27618,ダイヤモンド - 雪片,輝いていて美しい,1,NA,0,,1,,,,1,,
930,19,663025,4421182,44928.92716,44928.94025,21874,記憶 - 牢獄,閉じ込められている,2,NA,0,,2,,,,2,,
931,20,798840,4421182,44928.92716,44928.94025,135813,鍵 - 答え,合致する点,1,SHにないが部分的特徴は捉えている,0,,1,,,,1,,
932,21,835339,4421182,44928.92716,44928.94025,36496,結婚 - 合金,輝かしさ,1,SHにないが部分的特徴は捉えている,1,1,1,1,,,1,,SHにないが部分的特徴は捉えている
933,22,913334,4421182,44928.92716,44928.94025,77992,思考 - 網,シナプスのように張り巡らされている,2,NA,1,2,2,1,,,2,,NA
934,23,1067109,4421182,44928.92716,44928.94025,153771,学位 - 橋,そこを人が通るところ,2,NA,0,,2,,,,2,,
935,24,1105035,4421182,44928.92716,44928.94025,37923,美術館 - 墓,人が静かに集まる場所,1,NA,0,,1,,,,1,,
936,25,1122806,4421182,44928.92716,44928.94025,17768,若者 - 鳥,落ち着きがない,1,部分的な一致,0,,1,,,,1,,
937,2,40951,4922243,44928.92594,44928.94045,27075,鳥 - 飛行機,空中を移動する,2,飛ぶと同義,0,,2,,,,2,,
938,3,99575,4922243,44928.92594,44928.94045,58560,剣 - 拳銃,他者を威嚇する,1,NA,0,,1,,,,1,,
939,4,124863,4922243,44928.92594,44928.94045,25277,みかん - ボール,転がる,1,KHにはない基準,0,,1,,,,1,,
940,5,154664,4922243,44928.92594,44928.94045,29790,太陽 - 電球,空間を照らす,2,NA,0,,2,,,,2,,
941,6,203855,4922243,44928.92594,44928.94045,49182,紙 - 葉っぱ,薄く折れ曲がる,1,折れ曲がるも薄いと胴着か,0,,1,,,,1,,
942,7,235663,4922243,44928.92594,44928.94045,31799,山頂 - 針,先端が危険,1,KHにない,0,,1,,,,1,,
943,8,266783,4922243,44928.92594,44928.94045,31113,道 - 川,流れがある,1,NA,0,,1,,,,1,,
944,9,366159,4922243,44928.92594,44928.94045,99366,愛 - 薬物,終着点である,0,わからんでもないが,1,1,0,0,0,0,0,,わからんでもないが→基準表にない
945,10,387687,4922243,44928.92594,44928.94045,21518,山 - 障害物,いばらの道,1,SHにない,1,1,1,1,,,1,,SHにない
946,11,450047,4922243,44928.92594,44928.94045,62350,輪っか - ネックレス,繋ぎとめて活用するもの,1,つながっているはSHにない,0,,1,,,,1,,
947,12,476446,4922243,44928.92594,44928.94045,26391,孤独 - 砂漠,孤立無援,2,孤立しているの同義,0,,2,,,,2,,
948,13,508091,4922243,44928.92594,44928.94045,31635,なぞなぞ - 迷宮,新たな探求,1,SHにない,1,1,1,1,,,1,,SHにない
949,14,606662,4922243,44928.92594,44928.94045,98565,時間 - 川,不可抗力,1,止められないと同義,1,1,1,1,,,1,,止められないと同義
950,15,638821,4922243,44928.92594,44928.94045,32151,会社 - 木,根っこが大事である,1,強い基盤/土台を持つと同じか？; SHにない,0,,1,,,,1,,
951,16,658373,4922243,44928.92594,44928.94045,19542,酒場 - 教会,癒しの場所,1,NA,0,,1,,,,1,,
952,17,708608,4922243,44928.92594,44928.94045,50223,理論 - 建物,構築の結晶,2,構築されるものと同義か,1,2,2,1,,,2,,構築されるものと同義か
953,18,733311,4922243,44928.92594,44928.94045,24693,ダイヤモンド - 雪片,自然の結晶,2,結晶について言及されているため,0,,2,,,,2,,
954,19,855583,4922243,44928.92594,44928.94045,122236,記憶 - 牢獄,原点回帰,0,意味不明,0,,0,,,,0,,
955,20,1035791,4922243,44928.92594,44928.94045,180200,鍵 - 答え,仕掛けがある,0,説明不足,0,,0,,,,0,,
956,21,1056375,4922243,44928.92594,44928.94045,20574,結婚 - 合金,表裏一体,0,意味不明,0,,0,,,,0,,
957,22,1108967,4922243,44928.92594,44928.94045,52583,思考 - 網,点と点を結ぶ線,1,つながっていると同義か,0,,1,,,,1,,
958,23,1155949,4922243,44928.92594,44928.94045,46975,学位 - 橋,高さがある,1,NA,0,,1,,,,1,,
959,24,1204213,4922243,44928.92594,44928.94045,48254,美術館 - 墓,遺品,1,遺品がある場合もあり,0,,1,,,,1,,
960,25,1250647,4922243,44928.92594,44928.94045,46424,若者 - 鳥,巣立ち,2,NA,0,,2,,,,2,,
961,2,140938,3954203,44928.92696,44928.9405,48344,鳥 - 飛行機,どちらも飛ぶという点で似ている,2,NA,0,,2,,,,2,,
962,3,168142,3954203,44928.92696,44928.9405,27197,剣 - 拳銃,どちらも攻撃する道具という点で似ている,1,NA,0,,1,,,,1,,
963,4,184442,3954203,44928.92696,44928.9405,16294,みかん - ボール,どちらも丸いものという点で似ている,1,NA,0,,1,,,,1,,
964,5,201929,3954203,44928.92696,44928.9405,17482,太陽 - 電球,どちらも明るく照らすという点で似ている,2,NA,1,2,2,1,,,2,,NA
965,6,245850,3954203,44928.92696,44928.9405,43908,紙 - 葉っぱ,どちらも木から成り立っているものという点で似ている,2,木製というと2→木から成り立つも2,1,2,2,1,,,2,,木製というと2→木から成り立つも2
966,7,300051,3954203,44928.92696,44928.9405,54195,山頂 - 針,どちらもてっぺんがあるという点で似ている,0,針にてっぺんはない,0,,0,,,,0,,
967,8,327815,3954203,44928.92696,44928.9405,27753,道 - 川,どちらもある物体が流れるという点で似ている,1,NA,0,,1,,,,1,,
968,9,375178,3954203,44928.92696,44928.9405,47351,愛 - 薬物,人間にとって不可欠なものという点で似ている,1,NA,0,,1,,,,1,,
969,10,401661,3954203,44928.92696,44928.9405,26471,山 - 障害物,どちらも越えるものという点で似ている,2,NA,0,,2,,,,2,,
970,11,434507,3954203,44928.92696,44928.9405,32838,輪っか - ネックレス,どちらも掛けるものという点で似ている,1,首が限定されていないからありか,0,,1,,,,1,,
971,12,461259,3954203,44928.92696,44928.9405,26746,孤独 - 砂漠,無味乾燥した状態という意味で似ている,1,不毛だと近いか（語のセンスは良いが）,0,,1,,,,1,,
972,13,513382,3954203,44928.92696,44928.9405,52118,なぞなぞ - 迷宮,入り込んでしまうと抜けられないという点で似ている,1,挑戦的だと似ているか; SHにない,0,,1,,,,2,,ハマったら抜け出せないと同義（2023/2/19）
973,14,534546,3954203,44928.92696,44928.9405,21153,時間 - 川,どちらも流れるものという点で似ている,2,NA,0,,2,,,,2,,
974,15,633786,3954203,44928.92696,44928.9405,99234,会社 - 木,大きな本体がありそれに付随して小さい構成物があるという点で似ている,2,階層的だと同義か,0,,2,,,,2,,
975,16,661154,3954203,44928.92696,44928.9405,27355,酒場 - 教会,人々が好んで集う場所という点で似ている,2,NA,0,,2,,,,2,,
976,17,693202,3954203,44928.92696,44928.9405,32042,理論 - 建物,どちらも組み立てていくものという点で似ている,2,構築と同義か,0,,2,,,,2,,
977,18,776829,3954203,44928.92696,44928.9405,83621,ダイヤモンド - 雪片,ミクロで見れば結晶構造を持っているという点で似ている,2,NA,1,2,2,1,,,2,,NA
978,19,817158,3954203,44928.92696,44928.9405,40317,記憶 - 牢獄,閉じ込めたり開放したりする場所という点で似ている,2,NA,0,,2,,,,2,,
979,20,917934,3954203,44928.92696,44928.9405,100763,鍵 - 答え,問題を解くものという点で似ている,1,NA,1,,1,,,,1,,
980,21,954478,3954203,44928.92696,44928.9405,36533,結婚 - 合金,異なったものが合わさるという点で似ている,2,NA,0,,2,,,,2,,
981,22,985246,3954203,44928.92696,44928.9405,30755,思考 - 網,張り巡らすという点で似ている,2,NA,0,,2,,,,2,,
982,23,1015518,3954203,44928.92696,44928.9405,30263,学位 - 橋,渡すものという点で似ている,2,NA,0,,2,,,,2,,
983,24,1091294,3954203,44928.92696,44928.9405,75771,美術館 - 墓,並べて置いておくという点で似ている,1,展示すると同義か,0,,1,,,,1,,
984,25,1168122,3954203,44928.92696,44928.9405,76817,若者 - 鳥,自由に動き回れるという点で似ている,1,NA,0,,1,,,,1,,
985,2,204136,1167092,44928.92892,44928.94058,139992,鳥 - 飛行機,空高く、しかも長く飛ぶことができます。,2,より抽象的な内容についての言及がある,0,,2,,,,2,,
986,3,222531,1167092,44928.92892,44928.94058,18388,剣 - 拳銃,相手を傷つけることができます。,1,NA,1,1,1,1,,,1,,NA
987,4,278758,1167092,44928.92892,44928.94058,56223,みかん - ボール,形が丸くて、手で持てる大きさです。,1,手で持てる大きさはない,0,,1,,,,1,,
988,5,326410,1167092,44928.92892,44928.94058,47646,太陽 - 電球,とてもまぶしくて、直接見るのが難しいです。,1,まぶしいはひかる下位概念,0,,1,,,,1,,
989,6,353730,1167092,44928.92892,44928.94058,27314,紙 - 葉っぱ,薄くて、平べったいです。,1,NA,0,,1,,,,1,,
990,7,381410,1167092,44928.92892,44928.94058,27674,山頂 - 針,とがっています。,2,NA,0,,2,,,,2,,
991,8,409979,1167092,44928.92892,44928.94058,28562,道 - 川,くねくねと曲がっていて、しかも長いです。,1,クネクネ曲がるはKHにない,0,,1,,,,1,,
992,9,437306,1167092,44928.92892,44928.94058,27319,愛 - 薬物,人間を夢中にさせます。,2,"2点とした（1→2, v3）",1,2,2,1,,,2,,"2点とした（1→2, v3）"
993,10,462714,1167092,44928.92892,44928.94058,25403,山 - 障害物,乗り越えるのが難しいです。,2,NA,0,,2,,,,2,,
994,11,488650,1167092,44928.92892,44928.94058,25929,輪っか - ネックレス,丸くて、首にかけることができます。,2,丸いが上位概念か,0,,2,,,,2,,
995,12,545166,1167092,44928.92892,44928.94058,56511,孤独 - 砂漠,さみしい感じがします。,1,NA,1,,1,,,,1,,
996,13,599997,1167092,44928.92892,44928.94058,54826,なぞなぞ - 迷宮,よく分からないので、迷います。,1,混乱すると同義か; SHにない,0,,1,,,,1,,
997,14,616145,1167092,44928.92892,44928.94058,16143,時間 - 川,ずっと流れていきます。,2,NA,1,2,2,1,,,2,,NA
998,15,667344,1167092,44928.92892,44928.94058,51196,会社 - 木,伸びていきます。,1,成長すると同義か,0,,1,,,,1,,
999,16,698096,1167092,44928.92892,44928.94058,30746,酒場 - 教会,人が集まって、にぎやかになります。,2,人が集まるが上位概念,0,,2,,,,2,,
1000,17,715832,1167092,44928.92892,44928.94058,17731,理論 - 建物,基礎が大切です。,2,基盤があると同義か,0,,2,,,,2,,
1001,18,739044,1167092,44928.92892,44928.94058,23205,ダイヤモンド - 雪片,キラキラと輝いています。,1,NA,0,,1,,,,1,,
1002,19,775980,1167092,44928.92892,44928.94058,36930,記憶 - 牢獄,閉じ込めておくものです。,2,NA,0,,2,,,,2,,
1003,20,842324,1167092,44928.92892,44928.94058,66339,鍵 - 答え,無くてはならない、大切なものです。,1,SHにないが,0,,1,,,,1,,
1004,21,901771,1167092,44928.92892,44928.94058,59442,結婚 - 合金,貴重なものです。,1,SHにないが部分的特徴は捉えている,0,,1,,,,1,,
1005,22,915283,1167092,44928.92892,44928.94058,13507,思考 - 網,張り巡らすものです。,2,NA,0,,2,,,,2,,
1006,23,952619,1167092,44928.92892,44928.94058,37332,学位 - 橋,無くてはならないものです。,1,日本社会においては部分的な特徴が一致,0,,1,,,,1,,
1007,24,969932,1167092,44928.92892,44928.94058,17308,美術館 - 墓,訪れたいところです。,1,部分的特徴が一致する,0,,1,,,,1,,
1008,25,1004243,1167092,44928.92892,44928.94058,34308,若者 - 鳥,上昇志向があるところです。,1,上昇していくは部分的な一致,0,,1,,,,1,,
1009,2,100662,2511054,44928.92966,44928.94059,17889,鳥 - 飛行機,両方とも空を飛ぶ,2,NA,0,,2,,,,2,,
1010,3,122915,2511054,44928.92966,44928.94059,22251,剣 - 拳銃,両方とも武器である,2,NA,0,,2,,,,2,,
1011,4,134455,2511054,44928.92966,44928.94059,11538,みかん - ボール,球体である,2,NA,1,2,2,1,,,2,,NA
1012,5,161607,2511054,44928.92966,44928.94059,27149,太陽 - 電球,明るく光り輝くもの,1,NA,0,,1,,,,1,,
1013,6,171639,2511054,44928.92966,44928.94059,10029,紙 - 葉っぱ,うすっぺらいもの,1,NA,0,,1,,,,1,,
1014,7,201309,2511054,44928.92966,44928.94059,29667,山頂 - 針,頂点を持っている,1,NA,1,1,1,1,,,1,,NA
1015,8,251808,2511054,44928.92966,44928.94059,50497,道 - 川,大地の上に長く続いて存在している,1,NA,0,,1,,,,1,,
1016,9,281674,2511054,44928.92966,44928.94059,29863,愛 - 薬物,人を多幸感に導く,1,NA,1,1,1,1,,,1,,NA
1017,10,304272,2511054,44928.92966,44928.94059,22596,山 - 障害物,通行の妨げになる,2,NA,0,,2,,,,2,,
1018,11,396955,2511054,44928.92966,44928.94059,92680,輪っか - ネックレス,円状でドーナツ型になっているもの,2,円形の亜種,0,,2,,,,2,,
1019,12,452558,2511054,44928.92966,44928.94059,55601,孤独 - 砂漠,人が周りにいなくて寂しげな状態,2,周りに人がいないが上位概念,0,,2,,,,2,,
1020,13,505062,2511054,44928.92966,44928.94059,52501,なぞなぞ - 迷宮,頭を使って解決する必要がある課題である,2,答えを出すは解決できるか; SHにない,0,,2,,,,2,,
1021,14,529557,2511054,44928.92966,44928.94059,24493,時間 - 川,継続的に流れているもの,2,NA,0,,2,,,,2,,
1022,15,567559,2511054,44928.92966,44928.94059,37999,会社 - 木,しっかりと根をはらないと倒れてしまうもの,1,倒れてしまうはSHにはないが部分的特徴があっている,1,1,1,1,,,1,,倒れてしまうはSHにはないが部分的特徴があっている
1023,16,596778,2511054,44928.92966,44928.94059,29216,酒場 - 教会,人々が集い和気あいあいと話し込む場所,2,人が集いが上位互換,0,,2,,,,2,,
1024,17,625694,2511054,44928.92966,44928.94059,28914,理論 - 建物,構築過程が重要であるもの,2,構築されるものという前提がある,0,,2,,,,2,,
1025,18,644645,2511054,44928.92966,44928.94059,18948,ダイヤモンド - 雪片,きらきらと輝くもの,1,NA,0,,1,,,,1,,
1026,19,724109,2511054,44928.92966,44928.94059,79461,記憶 - 牢獄,柵があってしっかりと詰め込まれている,1,ものを保存するどと同義か,0,,1,,,,1,,
1027,20,752774,2511054,44928.92966,44928.94059,28663,鍵 - 答え,何事かを解決に導くもの,1,NA,0,,1,,,,1,,
1028,21,800267,2511054,44928.92966,44928.94059,47490,結婚 - 合金,違う性質をもつ二つの物体が一緒になること,2,NA,0,,2,,,,2,,
1029,22,849058,2511054,44928.92966,44928.94059,48788,思考 - 網,細かく広く編み込まれている感じ,2,v3で2点に変更,0,,2,,,,2,,
1030,23,898647,2511054,44928.92966,44928.94059,49587,学位 - 橋,次のステップ・フェイズに導いてくれるもの,2,次につながるは新規項目か,0,,2,,,,2,,
1031,24,919251,2511054,44928.92966,44928.94059,20601,美術館 - 墓,過去の遺産が眠る場所,2,眠る場所,0,,2,,,,2,,
1032,25,939633,2511054,44928.92966,44928.94059,20380,若者 - 鳥,自由に空を羽ばたける者,2,NA,0,,2,,,,2,,
1033,2,39824,2600289,44928.93352,44928.94118,22444,鳥 - 飛行機,翼があること、空を飛ぶこと,2,共通点の後に、抽象的な内容についての言及がある,0,,2,,,,2,,
1034,3,60669,2600289,44928.93352,44928.94118,20839,剣 - 拳銃,人を殺せること、武器として使うこと,2,抽象的な概念についての説明がある,0,,2,,,,2,,
1035,4,71446,2600289,44928.93352,44928.94118,10772,みかん - ボール,丸い形,1,NA,0,,1,,,,1,,
1036,5,88659,2600289,44928.93352,44928.94118,17208,太陽 - 電球,光をもたらしてくれる,2,もたらす＝放つ,0,,2,,,,2,,
1037,6,108624,2600289,44928.93352,44928.94118,19960,紙 - 葉っぱ,薄っぺらいこと、破くことができること,1,NA,0,,1,,,,1,,
1038,7,117401,2600289,44928.93352,44928.94118,8773,山頂 - 針,先がとんがっていること,2,NA,0,,2,,,,2,,
1039,8,150511,2600289,44928.93352,44928.94118,33107,道 - 川,細長く続いてること,1,NA,0,,1,,,,1,,
1040,9,160170,2600289,44928.93352,44928.94118,9655,愛 - 薬物,依存性があること,2,"2点とした（1→2, v3）",0,,2,,,,2,,
1041,10,179700,2600289,44928.93352,44928.94118,19526,山 - 障害物,乗り越えなくてはゴールが目指せないこと,2,NA,0,,2,,,,2,,
1042,11,196590,2600289,44928.93352,44928.94118,16885,輪っか - ネックレス,円形,2,NA,0,,2,,,,2,,
1043,12,223449,2600289,44928.93352,44928.94118,26854,孤独 - 砂漠,周りに助けをえることが難しいこと,2,人がいないと同様の上位概念,0,,2,,,,2,,
1044,13,253020,2600289,44928.93352,44928.94118,29566,なぞなぞ - 迷宮,一筋縄では解けないこと,1,挑戦的だと同義か,0,,1,,,,1,,
1045,14,274132,2600289,44928.93352,44928.94118,21109,時間 - 川,誰にも止めることができないこと,1,NA,0,,1,,,,1,,
1046,15,312929,2600289,44928.93352,44928.94118,38793,会社 - 木,小さい芽から育てなくてはいけないこと,1,NA,0,,1,,,,1,,
1047,16,341434,2600289,44928.93352,44928.94118,28500,酒場 - 教会,人が集まるところ,2,NA,0,,2,,,,2,,
1048,17,409702,2600289,44928.93352,44928.94118,68264,理論 - 建物,正しいこと,0,正しいとは限らないし、建物にあてはまらない,0,,0,,,,0,,
1049,18,445473,2600289,44928.93352,44928.94118,35766,ダイヤモンド - 雪片,輝いていること,1,NA,0,,1,,,,1,,
1050,19,473200,2600289,44928.93352,44928.94118,27722,記憶 - 牢獄,辛いことも忘れることがなかなかできないこと,0,牢獄のほうの特徴を捉えていない,1,2,0,0,2,2,2,,牢獄のほうの特徴を捉えていない→捉えてはなさないの同義
1051,20,523117,2600289,44928.93352,44928.94118,49912,鍵 - 答え,扉を開けること,1,NA,0,,1,,,,1,,
1052,21,558290,2600289,44928.93352,44928.94118,35169,結婚 - 合金,合わさること,2,NA,0,,2,,,,2,,
1053,22,575028,2600289,44928.93352,44928.94118,16734,思考 - 網,手繰り寄せること,1,新規項目,0,,1,,,,1,,
1054,23,600460,2600289,44928.93352,44928.94118,25428,学位 - 橋,高いところに上り詰めること,1,そういう橋があるのは事実,0,,1,,,,1,,
1055,24,619385,2600289,44928.93352,44928.94118,18920,美術館 - 墓,静かなとこ,1,NA,0,,1,,,,1,,
1056,25,657808,2600289,44928.93352,44928.94118,38419,若者 - 鳥,志が高いこと,1,上昇志向と同じか,0,,1,,,,1,,
1057,2,42232,519932,44928.92986,44928.94139,18511,鳥 - 飛行機,空を飛ぶ,2,NA,0,,2,,,,2,,
1058,3,60731,519932,44928.92986,44928.94139,18496,剣 - 拳銃,傷つける,1,NA,1,1,1,1,,,1,,NA
1059,4,68292,519932,44928.92986,44928.94139,7559,みかん - ボール,球形,2,NA,0,,2,,,,2,,
1060,5,74821,519932,44928.92986,44928.94139,6527,太陽 - 電球,光る,2,NA,0,,2,,,,2,,
1061,6,85101,519932,44928.92986,44928.94139,10278,紙 - 葉っぱ,薄っぺらい,1,NA,0,,1,,,,1,,
1062,7,94311,519932,44928.92986,44928.94139,9208,山頂 - 針,先が尖っている,2,NA,0,,2,,,,2,,
1063,8,118812,519932,44928.92986,44928.94139,24499,道 - 川,進むことができる,2,進むことができるは、移動できるの同義語か,1,1,2,0,2,2,2,,進むことができるは、移動できるの同義語か
1064,9,144712,519932,44928.92986,44928.94139,25898,愛 - 薬物,中毒になる,2,NA,0,,2,,,,2,,
1065,10,162101,519932,44928.92986,44928.94139,17387,山 - 障害物,向こうが見えない,1,乗り越える対象とはことなる; SH,0,,1,,,,1,,
1066,11,183141,519932,44928.92986,44928.94139,21038,輪っか - ネックレス,端がない,1,終わりがないの亜種,1,1,1,1,,,1,,終わりがないの亜種
1067,12,192541,519932,44928.92986,44928.94139,9398,孤独 - 砂漠,何もない,2,NA,0,,2,,,,2,,
1068,13,221722,519932,44928.92986,44928.94139,29179,なぞなぞ - 迷宮,答えにたどり着くことが容易ではない,2,解決できると同義か; SHにはない,0,,2,,,,2,,
1069,14,228002,519932,44928.92986,44928.94139,6278,時間 - 川,流れる,2,NA,0,,2,,,,2,,
1070,15,263942,519932,44928.92986,44928.94139,35938,会社 - 木,拠り所,1,一般的な回答かはわからない,0,,1,,,,1,,
1071,16,270633,519932,44928.92986,44928.94139,6689,酒場 - 教会,人が集まる,2,NA,0,,2,,,,2,,
1072,17,309413,519932,44928.92986,44928.94139,38777,理論 - 建物,土台になる基礎がある,2,NA,0,,2,,,,2,,
1073,18,329812,519932,44928.92986,44928.94139,20397,ダイヤモンド - 雪片,結晶の形が似ている,2,結晶構造と同義か,0,,2,,,,2,,
1074,19,390823,519932,44928.92986,44928.94139,61009,記憶 - 牢獄,何かを閉じ込めるところ,2,NA,1,2,2,1,,,2,,NA
1075,20,603194,519932,44928.92986,44928.94139,212368,鍵 - 答え,どちらも目的にたどり着くために必要,2,目標を達成すると同義か,0,,2,,,,2,,
1076,21,636564,519932,44928.92986,44928.94139,33368,結婚 - 合金,違ったものをくっつける,2,NA,1,2,2,1,,,2,,NA
1077,22,667814,519932,44928.92986,44928.94139,31248,思考 - 網,どちらも張り巡らせるところ,2,NA,0,,2,,,,2,,
1078,23,944975,519932,44928.92986,44928.94139,277159,学位 - 橋,似ていない,0,わかっていない回答,0,,0,,,,0,,
1079,24,972236,519932,44928.92986,44928.94139,27258,美術館 - 墓,集められている,1,物/人が集められているは1の典型,0,,1,,,,1,,
1080,25,988886,519932,44928.92986,44928.94139,16648,若者 - 鳥,自由に羽ばたくところ,2,NA,0,,2,,,,2,,
1081,2,44032,149507,44928.92659,44928.9417,22320,鳥 - 飛行機,空を飛べる,2,NA,1,2,2,1,,,2,,NA
1082,3,76920,149507,44928.92659,44928.9417,32877,剣 - 拳銃,人を攻撃することができる,1,NA,0,,1,,,,1,,
1083,4,87664,149507,44928.92659,44928.9417,10735,みかん - ボール,丸い。,1,NA,0,,1,,,,1,,
1084,5,102096,149507,44928.92659,44928.9417,14423,太陽 - 電球,明るい,1,NA,0,,1,,,,1,,
1085,6,117304,149507,44928.92659,44928.9417,15200,紙 - 葉っぱ,薄い,1,NA,0,,1,,,,1,,
